Timestamp,acc_x,acc_y,acc_z,gyro_x,gyro_y,gyro_z,mag_x,mag_y,mag_z,labels
2023-04-16 08:50:29:662669,0.0,-8.0,1012.0,-840.0,560.0,-490.0,-166.0,-166.0,-166.0,0.0
2023-04-16 08:50:29:678127,2.0,1.0,1023.5,-770.0,280.0,-455.0,-164.0,-164.0,-164.0,0.0
2023-04-16 08:50:29:687056,7.333333333333333,-2.0,1035.3333333333333,-762.2222222222222,350.0,-466.6666666666667,-166.33333333333334,-166.33333333333334,-166.33333333333334,0.0
2023-04-16 08:50:29:702658,16.5,-3.5,1039.25,-737.9166666666666,402.5,-490.0,-167.0,-167.0,-167.0,0.0
2023-04-16 08:50:29:712915,13.2,2.8,1031.8,-719.1333333333333,490.0,-532.0,-167.2,-167.2,-167.2,0.0
2023-04-16 08:50:29:727106,12.833333333333334,8.333333333333334,1034.1666666666667,-702.3333333333334,490.0,-560.0,-167.0,-167.0,-167.0,0.0
2023-04-16 08:50:29:742471,14.0,17.0,1032.0,-680.5714285714286,370.0,-570.0,-166.85714285714286,-166.85714285714286,-166.85714285714286,0.0
2023-04-16 08:50:29:752910,11.25,17.0,1023.25,-676.4375,437.5,-586.25,-166.25,-166.25,-166.25,0.0
2023-04-16 08:50:29:767105,9.88888888888889,14.0,1021.5555555555557,-678.1913580246915,412.22222222222223,-606.6666666666666,-166.22222222222223,-166.22222222222223,-166.22222222222223,0.0
2023-04-16 08:50:29:777379,8.5,18.5,1017.8,-685.2722222222222,406.0,-595.0,-166.2,-166.2,-166.2,0.0
2023-04-16 08:50:29:792919,14.909090909090908,19.454545454545453,1021.9090909090908,-697.024334251607,337.27272727272725,-598.1818181818181,-166.36363636363637,-166.36363636363637,-166.36363636363637,0.0
2023-04-16 08:50:29:807111,15.833333333333334,19.75,1026.4166666666667,-709.4250841750842,320.8333333333333,-583.3333333333334,-167.08333333333334,-167.08333333333334,-167.08333333333334,0.0
2023-04-16 08:50:29:817492,15.615384615384617,19.76923076923077,1030.076923076923,-724.8539238539239,350.0,-581.5384615384615,-167.92307692307693,-167.92307692307693,-167.92307692307693,0.0
2023-04-16 08:50:29:832973,16.214285714285715,18.285714285714285,1032.357142857143,-742.007215007215,415.0,-580.0,-168.42857142857142,-168.42857142857142,-168.42857142857142,0.0
2023-04-16 08:50:29:842057,15.2,17.133333333333333,1031.6666666666667,-757.5622895622895,462.0,-574.0,-168.8,-168.8,-168.8,0.0
2023-04-16 08:50:29:857493,12.5625,16.0625,1028.6875,-772.0115214646464,503.125,-577.5,-168.625,-168.625,-168.625,0.0
2023-04-16 08:50:29:872964,13.529411764705882,13.941176470588236,1028.8235294117646,-784.4883523819509,498.2352941176471,-564.1176470588235,-168.76470588235293,-168.76470588235293,-168.76470588235293,0.0
2023-04-16 08:50:29:882177,12.72222222222222,10.5,1027.7222222222222,-795.3501105829537,505.55555555555554,-560.0,-168.44444444444446,-168.44444444444446,-168.44444444444446,0.0
2023-04-16 08:50:29:897517,13.421052631578949,8.263157894736842,1027.3684210526317,-804.0989967295573,523.1578947368421,-556.3157894736842,-168.1578947368421,-168.1578947368421,-168.1578947368421,0.0
2023-04-16 08:50:29:907970,14.9,6.3,1026.0,-809.5690468930794,521.5,-542.5,-167.85,-167.85,-167.85,0.0
2023-04-16 08:50:29:922327,15.142857142857142,6.0,1023.809523809524,-812.7641716442026,553.3333333333334,-526.6666666666666,-167.76190476190476,-167.76190476190476,-167.76190476190476,0.0
2023-04-16 08:50:29:937505,15.227272727272728,3.227272727272727,1023.0454545454544,-813.8575357430199,560.0,-515.4545454545455,-167.36363636363637,-167.36363636363637,-167.36363636363637,0.0
2023-04-16 08:50:29:947964,14.956521739130435,1.434782608695652,1023.3478260869564,-813.2739377806579,572.1739130434783,-499.1304347826087,-167.2608695652174,-167.2608695652174,-167.2608695652174,0.0
2023-04-16 08:50:29:962286,14.625,1.125,1022.7083333333334,-812.078495928686,618.3333333333334,-487.0833333333333,-167.29166666666666,-167.29166666666666,-167.29166666666666,0.0
2023-04-16 08:50:29:972602,13.28,1.56,1023.16,-809.4993560915386,624.4,-476.0,-167.44,-167.44,-167.44,0.0
2023-04-16 08:50:29:988227,13.0,2.1153846153846154,1022.8461538461538,-806.0126944667161,616.5384615384615,-465.7692307692308,-167.3846153846154,-167.3846153846154,-167.3846153846154,0.0
2023-04-16 08:50:30:002249,12.37037037037037,3.2222222222222223,1022.8888888888888,-801.9902764274825,606.6666666666666,-458.8888888888889,-167.5185185185185,-167.5185185185185,-167.5185185185185,0.0
2023-04-16 08:50:30:012603,12.928571428571429,4.964285714285714,1024.2857142857142,-797.9906236979295,612.5,-455.0,-167.32142857142858,-167.32142857142858,-167.32142857142858,0.0
2023-04-16 08:50:30:028232,14.275862068965518,6.103448275862069,1027.103448275862,-793.8625284693445,586.551724137931,-451.3793103448276,-167.3793103448276,-167.3793103448276,-167.3793103448276,0.0
2023-04-16 08:50:30:037212,15.0,6.433333333333334,1028.1,-790.500444187033,609.0,-443.3333333333333,-167.33333333333334,-167.33333333333334,-167.33333333333334,0.0
2023-04-16 08:50:30:052589,14.612903225806452,7.032258064516129,1030.645161290323,-787.799597392238,623.2258064516129,-440.3225806451613,-167.48387096774192,-167.48387096774192,-167.48387096774192,0.0
2023-04-16 08:50:30:068267,13.4375,8.375,1030.375,-785.5343755987305,649.6875,-435.3125,-167.6875,-167.6875,-167.6875,0.0
2023-04-16 08:50:30:077254,12.575757575757576,8.696969696969697,1029.060606060606,-783.5209372197057,649.0909090909091,-432.7272727272728,-167.72727272727272,-167.72727272727272,-167.72727272727272,0.0
2023-04-16 08:50:30:092770,10.735294117647058,7.852941176470588,1027.1764705882354,-781.5488681319289,636.1764705882352,-424.11764705882354,-167.73529411764707,-167.73529411764707,-167.73529411764707,0.0
2023-04-16 08:50:30:103059,10.82857142857143,8.17142857142857,1026.3714285714286,-779.5617576138739,602.0,-418.0,-167.68571428571428,-167.68571428571428,-167.68571428571428,0.0
2023-04-16 08:50:30:117252,10.083333333333334,8.277777777777779,1024.3333333333333,-778.0538692850934,593.0555555555555,-408.3333333333333,-168.02777777777777,-168.02777777777777,-168.02777777777777,0.0
2023-04-16 08:50:30:132778,9.027027027027026,8.486486486486486,1024.1891891891892,-777.0180817295429,575.1351351351351,-399.1891891891892,-167.97297297297297,-167.97297297297297,-167.97297297297297,0.0
2023-04-16 08:50:30:143055,8.868421052631579,8.710526315789474,1024.2368421052631,-776.3971072795966,545.2631578947369,-386.8421052631579,-168.1315789473684,-168.1315789473684,-168.1315789473684,0.0
2023-04-16 08:50:30:157238,8.307692307692308,8.179487179487179,1025.6410256410256,-776.6933024249586,540.2564102564103,-373.3333333333333,-168.07692307692307,-168.07692307692307,-168.07692307692307,0.0
2023-04-16 08:50:30:167710,8.8,8.85,1027.0,-777.4884698643347,518.0,-360.5,-168.3,-168.3,-168.3,0.0
2023-04-16 08:50:30:183130,8.853658536585366,8.146341463414634,1027.7073170731708,-778.7632900520576,510.4878048780488,-346.5853658536585,-168.2439024390244,-168.2439024390244,-168.2439024390244,0.0
2023-04-16 08:50:30:197254,8.80952380952381,7.619047619047619,1029.071428571429,-779.9832117174849,488.3333333333333,-333.3333333333333,-168.23809523809524,-168.23809523809524,-168.23809523809524,0.0
2023-04-16 08:50:30:207680,7.651162790697675,6.976744186046512,1027.139534883721,-781.2275177727299,493.2558139534884,-320.69767441860466,-168.1627906976744,-168.1627906976744,-168.1627906976744,0.0
2023-04-16 08:50:30:223223,6.340909090909091,5.977272727272728,1026.1136363636365,-782.2378427820273,488.4090909090909,-308.6363636363636,-168.22727272727272,-168.22727272727272,-168.22727272727272,0.0
2023-04-16 08:50:30:232233,5.590909090909091,6.159090909090909,1025.5,-781.3339171621926,456.59090909090907,-292.72727272727275,-168.13636363636363,-168.13636363636363,-168.13636363636363,0.0
2023-04-16 08:50:30:247658,5.5227272727272725,5.159090909090909,1024.909090909091,-783.5394956745894,461.3636363636364,-280.0,-168.22727272727272,-168.22727272727272,-168.22727272727272,0.0
2023-04-16 08:50:30:263114,5.227272727272728,5.0,1023.7045454545456,-784.395211928033,435.9090909090909,-267.27272727272725,-168.04545454545453,-168.04545454545453,-168.04545454545453,0.0
2023-04-16 08:50:30:272309,4.659090909090909,6.136363636363637,1023.0909090909092,-786.8538896139834,404.09090909090907,-249.77272727272728,-167.9090909090909,-167.9090909090909,-167.9090909090909,0.0
2023-04-16 08:50:30:287674,4.977272727272728,4.204545454545454,1024.2272727272727,-789.645211928033,361.1363636363636,-232.27272727272728,-167.86363636363637,-167.86363636363637,-167.86363636363637,0.0
2023-04-16 08:50:30:298145,4.5227272727272725,2.4545454545454546,1023.2954545454544,-792.8390824514488,342.04545454545456,-208.4090909090909,-167.77272727272728,-167.77272727272728,-167.77272727272728,0.0
2023-04-16 08:50:30:312366,5.045454545454546,1.4545454545454546,1023.7727272727273,-797.4051981539283,332.5,-189.3181818181818,-167.95454545454547,-167.95454545454547,-167.95454545454547,0.0
2023-04-16 08:50:30:327748,4.545454545454546,1.0909090909090908,1023.681818181818,-799.1768923688043,316.59090909090907,-167.04545454545453,-167.9090909090909,-167.9090909090909,-167.9090909090909,0.0
2023-04-16 08:50:30:338268,4.454545454545454,0.6363636363636364,1023.2272727272727,-799.2813459959852,284.77272727272725,-143.1818181818182,-167.9090909090909,-167.9090909090909,-167.9090909090909,0.0
2023-04-16 08:50:30:352456,4.409090909090909,-0.6363636363636364,1022.7045454545456,-797.1191559133405,254.54545454545453,-124.0909090909091,-167.8181818181818,-167.8181818181818,-167.8181818181818,0.0
2023-04-16 08:50:30:362703,3.2954545454545454,-0.5454545454545454,1021.9545454545456,-792.2741145910265,230.6818181818182,-105.0,-167.77272727272728,-167.77272727272728,-167.77272727272728,0.0
2023-04-16 08:50:30:378569,4.25,-0.5681818181818182,1022.1363636363636,-785.6694313954341,189.3181818181818,-90.6818181818182,-167.6818181818182,-167.6818181818182,-167.6818181818182,0.0
2023-04-16 08:50:30:392545,4.681818181818182,-0.8409090909090909,1022.068181818182,-776.7024892466738,167.04545454545453,-71.5909090909091,-167.4090909090909,-167.4090909090909,-167.4090909090909,0.0
2023-04-16 08:50:30:402715,4.2727272727272725,-0.4772727272727273,1022.4545454545456,-765.5454644532855,136.8181818181818,-52.5,-167.1818181818182,-167.1818181818182,-167.1818181818182,0.0
2023-04-16 08:50:30:417146,4.113636363636363,0.9090909090909092,1023.9090909090908,-753.5750787783544,117.72727272727272,-31.818181818181817,-167.0681818181818,-167.0681818181818,-167.0681818181818,0.0
2023-04-16 08:50:30:427414,4.727272727272728,1.818181818181818,1026.2954545454545,-740.7935705138915,92.27272727272728,-12.727272727272728,-167.27272727272728,-167.27272727272728,-167.27272727272728,0.0
2023-04-16 08:50:30:442857,4.068181818181818,3.25,1025.9772727272727,-727.7557727501579,90.6818181818182,7.954545454545454,-167.02272727272728,-167.02272727272728,-167.02272727272728,0.0
2023-04-16 08:50:30:457057,4.045454545454546,5.795454545454546,1025.840909090909,-714.6307727501579,87.5,30.227272727272727,-167.0909090909091,-167.0909090909091,-167.0909090909091,0.0
2023-04-16 08:50:30:467450,3.636363636363636,6.477272727272728,1025.4772727272727,-701.8882760124458,60.45454545454545,52.5,-167.1590909090909,-167.1590909090909,-167.1590909090909,0.0
2023-04-16 08:50:30:482886,3.8181818181818175,7.795454545454546,1027.5681818181818,-690.4915817975698,44.54545454545455,70.0,-166.95454545454547,-166.95454545454547,-166.95454545454547,0.0
2023-04-16 08:50:30:491839,2.386363636363636,7.840909090909091,1029.6818181818182,-680.2574220179554,36.59090909090909,84.31818181818181,-166.9318181818182,-166.9318181818182,-166.9318181818182,0.0
2023-04-16 08:50:30:507418,2.8181818181818183,10.136363636363637,1031.3181818181818,-671.3627939187819,25.454545454545453,101.8181818181818,-167.13636363636363,-167.13636363636363,-167.13636363636363,0.0
2023-04-16 08:50:30:522964,1.4545454545454546,11.931818181818182,1031.5454545454545,-663.9097306776753,22.272727272727277,114.54545454545456,-167.0681818181818,-167.0681818181818,-167.0681818181818,0.0
2023-04-16 08:50:30:531968,0.8181818181818182,12.295454545454543,1032.659090909091,-657.3231259944796,-7.954545454545454,130.45454545454547,-166.75,-166.75,-166.75,0.0
2023-04-16 08:50:30:547407,0.75,11.954545454545457,1033.75,-652.3363491349754,-28.63636363636364,147.95454545454547,-166.5,-166.5,-166.5,0.0
2023-04-16 08:50:30:557777,0.1363636363636363,11.5,1035.2954545454545,-648.5815811756621,-31.818181818181817,163.86363636363637,-166.4090909090909,-166.4090909090909,-166.4090909090909,0.0
2023-04-16 08:50:30:572011,-0.3636363636363636,10.204545454545457,1035.5,-645.5309996023532,-41.36363636363637,184.54545454545453,-166.0681818181818,-166.0681818181818,-166.0681818181818,0.0
2023-04-16 08:50:30:587394,-1.5227272727272727,8.045454545454545,1035.0681818181818,-642.7572392717747,-57.27272727272727,208.4090909090909,-166.0681818181818,-166.0681818181818,-166.0681818181818,0.0
2023-04-16 08:50:30:597904,-3.113636363636364,6.5227272727272725,1034.0,-640.249936621447,-44.54545454545455,230.6818181818182,-165.9318181818182,-165.9318181818182,-165.9318181818182,0.0
2023-04-16 08:50:30:612029,-4.386363636363637,5.295454545454546,1034.6818181818182,-636.7933250511991,-73.18181818181819,251.3636363636364,-166.0,-166.0,-166.0,0.0
2023-04-16 08:50:30:622478,-4.795454545454546,3.75,1034.2272727272727,-632.4451512308844,-89.0909090909091,275.22727272727275,-165.79545454545453,-165.79545454545453,-165.79545454545453,0.0
2023-04-16 08:50:30:637783,-5.613636363636363,2.613636363636364,1036.0,-627.1797844953472,-103.4090909090909,297.5,-165.54545454545453,-165.54545454545453,-165.54545454545453,0.0
2023-04-16 08:50:30:652136,-4.840909090909091,3.0454545454545454,1038.159090909091,-621.2138754044381,-100.22727272727272,319.77272727272725,-165.38636363636363,-165.38636363636363,-165.38636363636363,0.0
2023-04-16 08:50:30:662358,-4.727272727272728,3.886363636363636,1039.9545454545455,-614.8736347627269,-85.9090909090909,337.27272727272725,-165.1818181818182,-165.1818181818182,-165.1818181818182,0.0
2023-04-16 08:50:30:681953,-6.068181818181818,3.9318181818181817,1039.340909090909,-608.5626843495038,-44.54545454545455,359.54545454545456,-165.02272727272728,-165.02272727272728,-165.02272727272728,0.0
2023-04-16 08:50:30:689191,-6.636363636363637,3.4318181818181817,1040.1818181818182,-601.6245530363725,-31.818181818181817,380.2272727272728,-164.61363636363637,-164.61363636363637,-164.61363636363637,0.0
2023-04-16 08:50:30:702525,-6.863636363636363,2.7045454545454546,1039.7954545454545,-593.7794558730934,-19.09090909090909,402.5,-164.45454545454547,-164.45454545454547,-164.45454545454547,0.0
2023-04-16 08:50:30:717828,-7.409090909090909,2.136363636363636,1038.340909090909,-585.0085228587394,4.7727272727272725,421.59090909090907,-164.4090909090909,-164.4090909090909,-164.4090909090909,0.0
2023-04-16 08:50:30:727044,-8.386363636363637,3.5681818181818183,1035.2954545454545,-574.5851015830455,19.09090909090909,435.9090909090909,-164.4090909090909,-164.4090909090909,-164.4090909090909,0.0
2023-04-16 08:50:30:742575,-9.25,3.2954545454545454,1034.7954545454545,-562.9353081946157,17.5,450.2272727272728,-164.4090909090909,-164.4090909090909,-164.4090909090909,0.0
2023-04-16 08:50:30:752746,-9.272727272727272,3.4545454545454546,1034.409090909091,-549.862339035172,17.5,458.1818181818182,-164.47727272727272,-164.47727272727272,-164.47727272727272,0.0
2023-04-16 08:50:30:767061,-9.840909090909092,3.386363636363636,1032.6136363636365,-536.3860993657505,47.72727272727273,464.54545454545456,-164.4318181818182,-164.4318181818182,-164.4318181818182,0.0
2023-04-16 08:50:30:782637,-10.636363636363637,3.840909090909091,1033.090909090909,-522.3243801652893,52.5,472.5,-164.5,-164.5,-164.5,0.0
2023-04-16 08:50:30:792739,-10.477272727272728,4.386363636363637,1032.4318181818182,-508.0423553719009,55.68181818181818,485.2272727272728,-164.4318181818182,-164.4318181818182,-164.4318181818182,0.0
2023-04-16 08:50:30:807160,-10.227272727272728,4.545454545454546,1033.0,-494.1580578512396,65.22727272727273,499.54545454545456,-164.5681818181818,-164.5681818181818,-164.5681818181818,0.0
2023-04-16 08:50:30:817441,-11.318181818181818,4.704545454545454,1032.1818181818182,-479.98450413223145,68.4090909090909,513.8636363636364,-164.22727272727272,-164.22727272727272,-164.22727272727272,0.0
2023-04-16 08:50:30:832868,-11.613636363636363,5.545454545454546,1032.3863636363635,-465.6301652892562,70.0,532.9545454545455,-164.22727272727272,-164.22727272727272,-164.22727272727272,0.0
2023-04-16 08:50:30:847243,-12.75,5.545454545454546,1030.9772727272727,-451.3481404958678,90.6818181818182,548.8636363636364,-164.22727272727272,-164.22727272727272,-164.22727272727272,0.0
2023-04-16 08:50:30:857562,-13.590909090909092,7.340909090909091,1030.4545454545455,-436.9214876033057,97.04545454545456,561.5909090909091,-164.0681818181818,-164.0681818181818,-164.0681818181818,0.0
2023-04-16 08:50:30:873042,-14.613636363636363,7.636363636363637,1030.5227272727273,-422.7479338842976,98.63636363636364,569.5454545454545,-163.75,-163.75,-163.75,0.0
2023-04-16 08:50:30:882139,-16.204545454545453,6.863636363636363,1030.2954545454545,-408.8997933884297,112.95454545454544,577.5,-163.47727272727272,-163.47727272727272,-163.47727272727272,0.0
2023-04-16 08:50:30:897577,-15.568181818181818,6.954545454545454,1033.4318181818182,-395.34090909090907,92.27272727272728,587.0454545454545,-163.3409090909091,-163.3409090909091,-163.3409090909091,0.0
2023-04-16 08:50:30:913193,-16.045454545454547,7.795454545454546,1036.409090909091,-382.36053719008265,103.4090909090909,595.0,-163.3409090909091,-163.3409090909091,-163.3409090909091,0.0
2023-04-16 08:50:30:922124,-15.840909090909092,7.727272727272727,1039.3181818181818,-370.5371900826447,122.5,602.9545454545455,-163.4090909090909,-163.4090909090909,-163.4090909090909,0.0
2023-04-16 08:50:30:937531,-16.022727272727273,7.590909090909091,1040.8863636363635,-360.051652892562,149.54545454545453,614.0909090909091,-163.3409090909091,-163.3409090909091,-163.3409090909091,0.0
2023-04-16 08:50:30:948176,-18.522727272727277,7.840909090909091,1040.25,-350.79545454545456,186.13636363636363,622.0454545454545,-163.20454545454547,-163.20454545454547,-163.20454545454547,0.0
2023-04-16 08:50:30:962155,-19.931818181818183,6.977272727272728,1038.8181818181818,-342.5154958677686,197.27272727272728,626.8181818181819,-162.9318181818182,-162.9318181818182,-162.9318181818182,0.0
2023-04-16 08:50:30:977526,-20.38636363636364,7.136363636363637,1038.159090909091,-334.922520661157,197.27272727272728,633.1818181818181,-162.8181818181818,-162.8181818181818,-162.8181818181818,0.0
2023-04-16 08:50:30:988179,-21.568181818181817,6.090909090909091,1037.2954545454545,-327.6911157024793,203.63636363636363,634.7727272727273,-162.61363636363637,-162.61363636363637,-162.61363636363637,0.0
2023-04-16 08:50:31:002144,-22.795454545454547,4.159090909090909,1035.4545454545455,-320.71280991735534,210.0,642.7272727272727,-162.54545454545453,-162.54545454545453,-162.54545454545453,0.0
2023-04-16 08:50:31:012522,-22.795454545454547,3.022727272727273,1037.0,-313.80681818181824,210.0,649.0909090909091,-162.72727272727272,-162.72727272727272,-162.72727272727272,0.0
2023-04-16 08:50:31:028181,-23.40909090909091,1.6590909090909092,1038.6818181818182,-306.50309917355366,203.63636363636363,657.0454545454545,-162.52272727272728,-162.52272727272728,-162.52272727272728,0.0
2023-04-16 08:50:31:042150,-23.568181818181817,0.9545454545454546,1039.8181818181818,-298.620867768595,217.95454545454547,666.5909090909091,-162.38636363636363,-162.38636363636363,-162.38636363636363,0.0
2023-04-16 08:50:31:052574,-25.704545454545453,0.0681818181818181,1038.1136363636365,-289.7985537190083,237.04545454545453,674.5454545454545,-162.54545454545453,-162.54545454545453,-162.54545454545453,0.0
2023-04-16 08:50:31:068071,-24.59090909090909,0.3409090909090909,1037.1136363636365,-279.60227272727275,229.0909090909091,680.9090909090909,-162.63636363636363,-162.63636363636363,-162.63636363636363,0.0
2023-04-16 08:50:31:077147,-26.272727272727277,-0.0681818181818181,1036.159090909091,-268.0320247933885,243.4090909090909,687.2727272727273,-162.70454545454547,-162.70454545454547,-162.70454545454547,0.0
2023-04-16 08:50:31:092699,-25.681818181818183,-1.0,1036.3863636363635,-254.76239669421489,238.63636363636363,695.2272727272727,-162.72727272727272,-162.72727272727272,-162.72727272727272,0.0
2023-04-16 08:50:31:108919,-25.65909090909091,-1.6590909090909092,1035.840909090909,-239.6487603305785,252.95454545454547,703.1818181818181,-163.11363636363637,-163.11363636363637,-163.11363636363637,0.0
2023-04-16 08:50:31:117175,-26.568181818181817,-1.7727272727272727,1034.6818181818182,-222.43801652892563,278.40909090909093,709.5454545454545,-163.25,-163.25,-163.25,0.0
2023-04-16 08:50:31:132735,-26.681818181818183,-1.3409090909090908,1032.9545454545455,-203.2747933884297,292.72727272727275,720.6818181818181,-163.13636363636363,-163.13636363636363,-163.13636363636363,0.0
2023-04-16 08:50:31:143049,-27.454545454545453,-0.5454545454545454,1032.2045454545455,-182.95454545454547,318.1818181818182,723.8636363636364,-163.1590909090909,-163.1590909090909,-163.1590909090909,0.0
2023-04-16 08:50:31:157381,-27.931818181818183,0.4545454545454545,1031.1363636363635,-161.5495867768595,329.3181818181818,727.0454545454545,-162.97727272727272,-162.97727272727272,-162.97727272727272,0.0
2023-04-16 08:50:31:172627,-27.863636363636363,1.2045454545454546,1030.7954545454545,-139.45764462809916,340.45454545454544,728.6363636363636,-162.97727272727272,-162.97727272727272,-162.97727272727272,0.0
2023-04-16 08:50:31:183019,-29.318181818181817,1.5909090909090908,1028.75,-117.69111570247934,372.27272727272725,725.4545454545455,-162.6818181818182,-162.6818181818182,-162.6818181818182,0.0
2023-04-16 08:50:31:197458,-29.84090909090909,3.1818181818181817,1027.7272727272727,-95.96074380165288,375.45454545454544,725.4545454545455,-162.6590909090909,-162.6590909090909,-162.6590909090909,0.0
2023-04-16 08:50:31:207615,-29.40909090909091,3.090909090909091,1027.2272727272727,-74.41115702479338,367.5,723.8636363636364,-162.52272727272728,-162.52272727272728,-162.52272727272728,0.0
2023-04-16 08:50:31:223149,-31.63636363636364,2.727272727272727,1026.75,-52.933884297520656,364.3181818181818,725.4545454545455,-162.6590909090909,-162.6590909090909,-162.6590909090909,0.0
2023-04-16 08:50:31:237411,-31.772727272727277,1.8863636363636365,1026.5454545454545,-31.52892561983471,361.1363636363636,730.2272727272727,-162.75,-162.75,-162.75,0.0
2023-04-16 08:50:31:247767,-31.59090909090909,2.25,1028.7727272727273,-9.364669421487603,345.22727272727275,731.8181818181819,-162.8181818181818,-162.8181818181818,-162.8181818181818,0.0
2023-04-16 08:50:31:263151,-31.318181818181817,2.386363636363636,1030.2045454545455,13.197314049586776,337.27272727272725,727.0454545454545,-162.75,-162.75,-162.75,0.0
2023-04-16 08:50:31:272183,-31.38636363636364,2.136363636363636,1030.7045454545455,35.75929752066116,343.6363636363636,723.8636363636364,-162.8409090909091,-162.8409090909091,-162.8409090909091,0.0
2023-04-16 08:50:31:287652,-32.27272727272727,3.4318181818181817,1032.2954545454545,58.538223140495866,340.45454545454544,722.2727272727273,-162.6818181818182,-162.6818181818182,-162.6818181818182,0.0
2023-04-16 08:50:31:303268,-31.84090909090909,1.818181818181818,1034.0454545454545,81.42561983471074,327.72727272727275,723.8636363636364,-162.52272727272728,-162.52272727272728,-162.52272727272728,0.0
2023-04-16 08:50:31:312138,-32.68181818181818,1.6363636363636365,1033.1363636363635,104.349173553719,348.40909090909093,728.6363636363636,-162.45454545454547,-162.45454545454547,-162.45454545454547,0.0
2023-04-16 08:50:31:327752,-34.04545454545455,1.1363636363636365,1032.6818181818182,126.76652892561984,362.7272727272728,739.7727272727273,-162.25,-162.25,-162.25,0.0
2023-04-16 08:50:31:338194,-34.45454545454545,1.2727272727272727,1033.5681818181818,149.61776859504133,348.40909090909093,755.6818181818181,-162.11363636363637,-162.11363636363637,-162.11363636363637,0.0
2023-04-16 08:50:31:352240,-33.65909090909091,1.6590909090909092,1035.8863636363635,172.8305785123967,338.8636363636364,770.0,-162.0,-162.0,-162.0,0.0
2023-04-16 08:50:31:367611,-33.68181818181818,2.909090909090909,1037.9772727272727,196.224173553719,340.45454545454544,776.3636363636364,-161.88636363636363,-161.88636363636363,-161.88636363636363,0.0
2023-04-16 08:50:31:378173,-33.54545454545455,3.886363636363636,1038.0,219.7262396694215,362.7272727272728,781.1363636363636,-161.70454545454547,-161.70454545454547,-161.70454545454547,0.0
2023-04-16 08:50:31:392113,-33.65909090909091,5.159090909090909,1038.1818181818182,243.01136363636363,370.6818181818182,787.5,-161.95454545454547,-161.95454545454547,-161.95454545454547,0.0
2023-04-16 08:50:31:402624,-33.68181818181818,3.636363636363636,1038.090909090909,265.754132231405,388.1818181818182,792.2727272727273,-162.0,-162.0,-162.0,0.0
2023-04-16 08:50:31:418260,-33.75,1.2045454545454546,1039.659090909091,288.5692148760331,392.95454545454544,800.2272727272727,-162.0681818181818,-162.0681818181818,-162.0681818181818,0.0
2023-04-16 08:50:31:432265,-33.86363636363637,1.5454545454545454,1039.6136363636365,311.8543388429752,418.4090909090909,814.5454545454545,-162.20454545454547,-162.20454545454547,-162.20454545454547,0.0
2023-04-16 08:50:31:442560,-32.86363636363637,1.681818181818182,1040.4318181818182,336.224173553719,431.1363636363636,827.2727272727273,-162.3409090909091,-162.3409090909091,-162.3409090909091,0.0
2023-04-16 08:50:31:458292,-33.68181818181818,2.863636363636364,1039.840909090909,361.823347107438,440.6818181818182,844.7727272727273,-162.27272727272728,-162.27272727272728,-162.27272727272728,0.0
2023-04-16 08:50:31:467210,-33.70454545454545,2.977272727272727,1037.8181818181818,387.8202479338843,461.3636363636364,857.5,-162.3181818181818,-162.3181818181818,-162.3181818181818,0.0
2023-04-16 08:50:31:482646,-33.95454545454545,3.409090909090909,1035.6136363636365,414.5041322314049,474.09090909090907,867.0454545454545,-162.11363636363637,-162.11363636363637,-162.11363636363637,0.0
2023-04-16 08:50:31:498143,-34.25,3.4545454545454546,1033.5681818181818,441.94731404958674,485.2272727272728,878.1818181818181,-162.27272727272728,-162.27272727272728,-162.27272727272728,0.0
2023-04-16 08:50:31:507302,-35.56818181818182,2.840909090909091,1031.1363636363635,470.0774793388429,491.59090909090907,889.3181818181819,-162.1818181818182,-162.1818181818182,-162.1818181818182,0.0
2023-04-16 08:50:31:522731,-35.97727272727273,1.9090909090909087,1030.2954545454545,498.930785123967,505.9090909090909,906.818181818182,-162.0681818181818,-162.0681818181818,-162.0681818181818,0.0
2023-04-16 08:50:31:533070,-36.0,2.909090909090909,1031.3181818181818,528.904958677686,490.0,927.5,-162.25,-162.25,-162.25,0.0
2023-04-16 08:50:31:547323,-37.13636363636363,2.4545454545454546,1031.3863636363635,559.1322314049587,507.5,946.5909090909092,-162.3181818181818,-162.3181818181818,-162.3181818181818,0.0
2023-04-16 08:50:31:562748,-36.36363636363637,3.0,1032.1818181818182,589.9380165289257,491.59090909090907,967.2727272727273,-162.36363636363637,-162.36363636363637,-162.36363636363637,0.0
2023-04-16 08:50:31:577875,-36.36363636363637,5.2727272727272725,1032.25,621.25,504.3181818181818,987.9545454545456,-162.20454545454547,-162.20454545454547,-162.20454545454547,0.0
2023-04-16 08:50:31:587315,-37.13636363636363,6.613636363636363,1030.909090909091,652.8512396694215,507.5,992.7272727272727,-162.27272727272728,-162.27272727272728,-162.27272727272728,0.0
2023-04-16 08:50:31:597738,-37.5,7.0227272727272725,1030.0454545454545,684.1632231404959,513.8636363636364,1000.681818181818,-162.45454545454547,-162.45454545454547,-162.45454545454547,0.0
2023-04-16 08:50:31:612032,-38.59090909090909,8.954545454545455,1030.7272727272727,715.1136363636364,520.2272727272727,1008.6363636363636,-162.6590909090909,-162.6590909090909,-162.6590909090909,0.0
2023-04-16 08:50:31:627507,-38.47727272727273,9.113636363636363,1031.3181818181818,745.4132231404958,520.2272727272727,1018.181818181818,-162.86363636363637,-162.86363636363637,-162.86363636363637,0.0
2023-04-16 08:50:31:637768,-39.04545454545455,8.931818181818182,1031.5681818181818,774.7365702479339,513.8636363636364,1035.6818181818182,-162.9318181818182,-162.9318181818182,-162.9318181818182,0.0
2023-04-16 08:50:31:652026,-40.09090909090909,10.454545454545457,1031.7045454545455,803.3367768595042,509.09090909090907,1050.0,-163.13636363636363,-163.13636363636363,-163.13636363636363,0.0
2023-04-16 08:50:31:662363,-40.22727272727273,11.795454545454543,1031.5227272727273,830.8884297520661,507.5,1064.3181818181818,-163.38636363636363,-163.38636363636363,-163.38636363636363,0.0
2023-04-16 08:50:31:677799,-40.95454545454545,13.931818181818182,1031.9318181818182,856.7407024793389,510.6818181818182,1075.4545454545455,-163.3409090909091,-163.3409090909091,-163.3409090909091,0.0
2023-04-16 08:50:31:692072,-40.65909090909091,14.454545454545457,1032.8636363636365,880.676652892562,513.8636363636364,1083.409090909091,-163.47727272727272,-163.47727272727272,-163.47727272727272,0.0
2023-04-16 08:50:31:702291,-41.36363636363637,14.909090909090908,1033.5,902.660123966942,512.2727272727273,1088.1818181818182,-163.86363636363637,-163.86363636363637,-163.86363636363637,0.0
2023-04-16 08:50:31:717793,-41.47727272727273,15.318181818181818,1034.75,923.5227272727273,507.5,1097.7272727272727,-164.3181818181818,-164.3181818181818,-164.3181818181818,0.0
2023-04-16 08:50:31:727059,-41.88636363636363,14.863636363636363,1035.1818181818182,943.1198347107438,517.0454545454545,1108.8636363636365,-164.72727272727272,-164.72727272727272,-164.72727272727272,0.0
2023-04-16 08:50:31:742398,-42.95454545454545,14.090909090909092,1034.340909090909,962.0661157024792,515.4545454545455,1126.3636363636365,-164.86363636363637,-164.86363636363637,-164.86363636363637,0.0
2023-04-16 08:50:31:757789,-42.04545454545455,14.727272727272728,1034.6818181818182,981.0847107438016,497.95454545454544,1151.8181818181818,-164.95454545454547,-164.95454545454547,-164.95454545454547,0.0
2023-04-16 08:50:31:767114,-42.81818181818182,14.545454545454543,1033.9545454545455,999.814049586777,499.54545454545456,1174.090909090909,-165.04545454545453,-165.04545454545453,-165.04545454545453,0.0
2023-04-16 08:50:31:782370,-44.13636363636363,13.931818181818182,1032.0,1017.8202479338842,509.09090909090907,1194.7727272727273,-165.0909090909091,-165.0909090909091,-165.0909090909091,0.0
2023-04-16 08:50:31:792743,-42.34090909090909,13.727272727272728,1031.75,1035.5371900826449,474.09090909090907,1218.6363636363635,-164.9090909090909,-164.9090909090909,-164.9090909090909,0.0
2023-04-16 08:50:31:807133,-42.52272727272727,16.09090909090909,1031.9545454545455,1053.0010330578514,464.54545454545456,1229.7727272727273,-164.95454545454547,-164.95454545454547,-164.95454545454547,0.0
2023-04-16 08:50:31:822408,-42.31818181818182,16.0,1032.6136363636365,1069.344008264463,448.6363636363636,1240.909090909091,-165.02272727272728,-165.02272727272728,-165.02272727272728,0.0
2023-04-16 08:50:31:832689,-41.68181818181818,17.15909090909091,1032.4318181818182,1084.9638429752067,432.7272727272728,1263.1818181818182,-165.11363636363637,-165.11363636363637,-165.11363636363637,0.0
2023-04-16 08:50:31:847098,-42.77272727272727,17.454545454545453,1033.3636363636365,1099.715909090909,439.09090909090907,1274.3181818181818,-165.11363636363637,-165.11363636363637,-165.11363636363637,0.0
2023-04-16 08:50:31:857422,-42.18181818181818,15.954545454545457,1033.3636363636365,1113.3832644628098,443.8636363636364,1288.6363636363635,-165.11363636363637,-165.11363636363637,-165.11363636363637,0.0
2023-04-16 08:50:31:872890,-42.95454545454545,17.795454545454547,1033.2272727272727,1125.9297520661155,466.1363636363636,1302.9545454545455,-165.20454545454547,-165.20454545454547,-165.20454545454547,0.0
2023-04-16 08:50:31:886997,-43.36363636363637,18.068181818181817,1033.0681818181818,1137.6446280991734,478.8636363636364,1307.7272727272727,-165.0,-165.0,-165.0,0.0
2023-04-16 08:50:31:897398,-42.68181818181818,20.568181818181817,1033.590909090909,1149.142561983471,469.3181818181818,1314.090909090909,-165.3409090909091,-165.3409090909091,-165.3409090909091,0.0
2023-04-16 08:50:31:912883,-42.93181818181818,21.88636363636364,1032.75,1159.4473140495868,480.45454545454544,1315.6818181818182,-165.45454545454547,-165.45454545454547,-165.45454545454547,0.0
2023-04-16 08:50:31:921871,-43.13636363636363,22.795454545454547,1031.8636363636365,1168.5227272727273,486.8181818181818,1314.090909090909,-165.63636363636363,-165.63636363636363,-165.63636363636363,0.0
2023-04-16 08:50:31:937341,-42.97727272727273,22.568181818181817,1031.6136363636365,1176.98347107438,477.27272727272725,1317.2727272727273,-165.70454545454547,-165.70454545454547,-165.70454545454547,0.0
2023-04-16 08:50:31:952900,-43.75,22.045454545454547,1031.5681818181818,1185.0103305785124,485.2272727272728,1322.0454545454545,-165.97727272727272,-165.97727272727272,-165.97727272727272,0.0
2023-04-16 08:50:31:961925,-43.81818181818182,21.65909090909091,1032.3863636363635,1193.3264462809916,467.7272727272728,1330.0,-166.0681818181818,-166.0681818181818,-166.0681818181818,0.0
2023-04-16 08:50:31:977530,-44.47727272727273,22.75,1033.5,1201.9318181818182,472.5,1339.5454545454545,-166.22727272727272,-166.22727272727272,-166.22727272727272,0.0
2023-04-16 08:50:31:987765,-44.34090909090909,25.045454545454547,1033.909090909091,1210.464876033058,467.7272727272728,1345.909090909091,-166.3409090909091,-166.3409090909091,-166.3409090909091,0.0
2023-04-16 08:50:32:002041,-43.95454545454545,24.931818181818183,1034.5,1217.949380165289,470.9090909090909,1353.8636363636365,-166.70454545454547,-166.70454545454547,-166.70454545454547,0.0
2023-04-16 08:50:32:017590,-45.31818181818182,26.272727272727277,1033.8863636363635,1224.0960743801652,482.04545454545456,1360.2272727272727,-167.29545454545453,-167.29545454545453,-167.29545454545453,0.0
2023-04-16 08:50:32:027812,-45.11363636363637,26.613636363636363,1033.2727272727273,1228.4710743801652,496.3636363636364,1363.409090909091,-167.6590909090909,-167.6590909090909,-167.6590909090909,0.0
2023-04-16 08:50:32:042021,-45.52272727272727,27.63636363636364,1033.2954545454545,1231.5805785123966,497.95454545454544,1366.590909090909,-167.79545454545453,-167.79545454545453,-167.79545454545453,0.0
2023-04-16 08:50:32:052520,-45.93181818181818,27.25,1033.1363636363635,1232.9545454545455,510.6818181818182,1377.7272727272727,-168.0681818181818,-168.0681818181818,-168.0681818181818,0.0
2023-04-16 08:50:32:067813,-46.77272727272727,27.0,1033.1818181818182,1233.099173553719,502.7272727272728,1392.0454545454545,-168.11363636363637,-168.11363636363637,-168.11363636363637,0.0
2023-04-16 08:50:32:082067,-47.63636363636363,26.90909090909091,1034.2045454545455,1231.978305785124,509.09090909090907,1406.3636363636365,-168.20454545454547,-168.20454545454547,-168.20454545454547,0.0
2023-04-16 08:50:32:092343,-46.79545454545455,27.25,1034.7954545454545,1230.0981404958677,488.4090909090909,1419.090909090909,-168.3409090909091,-168.3409090909091,-168.3409090909091,0.0
2023-04-16 08:50:32:112023,-46.13636363636363,28.40909090909091,1034.6363636363635,1226.8078512396694,494.77272727272725,1433.409090909091,-168.47727272727272,-168.47727272727272,-168.47727272727272,0.0
2023-04-16 08:50:32:119825,-46.09090909090909,30.13636363636364,1033.6136363636365,1222.577479338843,486.8181818181818,1438.1818181818182,-168.54545454545453,-168.54545454545453,-168.54545454545453,0.0
2023-04-16 08:50:32:132486,-45.47727272727273,30.613636363636363,1032.9545454545455,1216.900826446281,477.27272727272725,1444.5454545454545,-168.61363636363637,-168.61363636363637,-168.61363636363637,0.0
2023-04-16 08:50:32:147940,-45.11363636363637,30.477272727272727,1033.7272727272727,1209.6694214876034,466.1363636363636,1449.3181818181818,-168.6818181818182,-168.6818181818182,-168.6818181818182,0.0
2023-04-16 08:50:32:157222,-45.68181818181818,30.181818181818183,1034.590909090909,1200.8832644628098,470.9090909090909,1455.6818181818182,-168.54545454545453,-168.54545454545453,-168.54545454545453,0.0
2023-04-16 08:50:32:172576,-45.84090909090909,30.40909090909091,1034.7954545454545,1191.1931818181818,462.95454545454544,1465.2272727272727,-168.29545454545453,-168.29545454545453,-168.29545454545453,0.0
2023-04-16 08:50:32:182904,-45.36363636363637,30.38636363636364,1033.840909090909,1180.5991735537189,469.3181818181818,1470.0,-168.27272727272728,-168.27272727272728,-168.27272727272728,0.0
2023-04-16 08:50:32:197217,-45.31818181818182,31.15909090909091,1034.659090909091,1169.4628099173551,466.1363636363636,1477.9545454545455,-167.86363636363637,-167.86363636363637,-167.86363636363637,0.0
2023-04-16 08:50:32:212573,-46.04545454545455,31.818181818181817,1034.3181818181818,1157.3502066115705,482.04545454545456,1482.7272727272727,-167.72727272727272,-167.72727272727272,-167.72727272727272,0.0
2023-04-16 08:50:32:222935,-45.04545454545455,31.227272727272727,1034.1363636363635,1144.00826446281,486.8181818181818,1487.5,-167.54545454545453,-167.54545454545453,-167.54545454545453,0.0
2023-04-16 08:50:32:237271,-45.13636363636363,31.431818181818183,1034.0454545454545,1129.979338842975,486.8181818181818,1490.6818181818182,-167.27272727272728,-167.27272727272728,-167.27272727272728,0.0
2023-04-16 08:50:32:247561,-45.15909090909091,30.295454545454547,1033.75,1115.8419421487602,470.9090909090909,1490.6818181818182,-167.25,-167.25,-167.25,0.0
2023-04-16 08:50:32:263051,-45.02272727272727,30.727272727272727,1033.0454545454545,1101.9576446280992,461.3636363636364,1493.8636363636365,-167.22727272727272,-167.22727272727272,-167.22727272727272,0.0
2023-04-16 08:50:32:277554,-45.38636363636363,29.90909090909091,1032.0,1088.3626033057851,456.59090909090907,1498.6363636363635,-167.1590909090909,-167.1590909090909,-167.1590909090909,0.0
2023-04-16 08:50:32:287526,-45.52272727272727,29.227272727272727,1030.5681818181818,1074.405991735537,443.8636363636364,1506.590909090909,-167.0909090909091,-167.0909090909091,-167.0909090909091,0.0
2023-04-16 08:50:32:302908,-45.34090909090909,29.65909090909091,1029.9772727272727,1060.3770661157023,431.1363636363636,1514.5454545454545,-167.0681818181818,-167.0681818181818,-167.0681818181818,0.0
2023-04-16 08:50:32:312117,-45.63636363636363,30.34090909090909,1029.409090909091,1045.805785123967,426.3636363636364,1520.909090909091,-167.0681818181818,-167.0681818181818,-167.0681818181818,0.0
2023-04-16 08:50:32:327721,-45.47727272727273,30.84090909090909,1029.5681818181818,1030.2221074380166,418.4090909090909,1525.6818181818182,-167.27272727272728,-167.27272727272728,-167.27272727272728,0.0
2023-04-16 08:50:32:343087,-45.22727272727273,31.431818181818183,1030.5227272727273,1013.5537190082644,415.2272727272728,1525.6818181818182,-167.4090909090909,-167.4090909090909,-167.4090909090909,0.0
2023-04-16 08:50:32:352104,-44.90909090909091,31.977272727272727,1031.0,996.1621900826448,416.8181818181818,1527.2727272727273,-167.75,-167.75,-167.75,0.0
2023-04-16 08:50:32:367674,-45.04545454545455,33.0,1030.7727272727273,977.5774793388427,418.4090909090909,1528.8636363636365,-168.0,-168.0,-168.0,0.0
2023-04-16 08:50:32:377960,-46.06818181818182,30.795454545454547,1030.090909090909,957.8719008264462,431.1363636363636,1532.0454545454545,-167.9318181818182,-167.9318181818182,-167.9318181818182,0.0
2023-04-16 08:50:32:392199,-47.06818181818182,30.477272727272727,1028.409090909091,938.021694214876,429.54545454545456,1541.590909090909,-167.95454545454547,-167.95454545454547,-167.95454545454547,0.0
2023-04-16 08:50:32:407643,-47.81818181818182,30.545454545454547,1028.75,917.8099173553718,424.77272727272725,1547.9545454545455,-168.13636363636363,-168.13636363636363,-168.13636363636363,0.0
2023-04-16 08:50:32:417955,-47.81818181818182,30.227272727272727,1028.0681818181818,897.4173553719007,421.59090909090907,1557.5,-168.25,-168.25,-168.25,0.0
2023-04-16 08:50:32:432182,-47.75,31.227272727272727,1029.4318181818182,877.060950413223,404.09090909090907,1570.2272727272727,-168.25,-168.25,-168.25,0.0
2023-04-16 08:50:32:442656,-46.11363636363637,30.863636363636363,1031.1818181818182,856.668388429752,373.8636363636364,1581.3636363636365,-168.25,-168.25,-168.25,0.0
2023-04-16 08:50:32:458321,-46.65909090909091,30.318181818181817,1032.3181818181818,835.6973140495869,381.8181818181818,1594.090909090909,-168.20454545454547,-168.20454545454547,-168.20454545454547,0.0
2023-04-16 08:50:32:472363,-47.22727272727273,28.818181818181817,1030.2727272727273,814.0030991735538,388.1818181818182,1608.409090909091,-168.0,-168.0,-168.0,0.0
2023-04-16 08:50:32:482749,-47.88636363636363,29.477272727272727,1030.5227272727273,792.5981404958678,378.6363636363636,1621.1363636363635,-167.88636363636363,-167.88636363636363,-167.88636363636363,0.0
2023-04-16 08:50:32:498654,-47.79545454545455,28.818181818181817,1030.340909090909,771.3016528925618,353.1818181818182,1637.0454545454545,-167.70454545454547,-167.70454545454547,-167.70454545454547,0.0
2023-04-16 08:50:32:507330,-48.13636363636363,28.84090909090909,1028.4545454545455,749.426652892562,354.77272727272725,1652.9545454545455,-167.54545454545453,-167.54545454545453,-167.54545454545453,0.0
2023-04-16 08:50:32:522987,-48.02272727272727,30.204545454545453,1029.0454545454545,727.3347107438017,329.3181818181818,1664.090909090909,-167.25,-167.25,-167.25,0.0
2023-04-16 08:50:32:538217,-47.97727272727273,31.25,1030.1818181818182,704.3388429752066,321.3636363636364,1673.6363636363635,-167.3181818181818,-167.3181818181818,-167.3181818181818,0.0
2023-04-16 08:50:32:547531,-47.65909090909091,31.727272727272727,1030.1818181818182,680.7283057851239,310.22727272727275,1681.590909090909,-167.11363636363637,-167.11363636363637,-167.11363636363637,0.0
2023-04-16 08:50:32:562659,-47.13636363636363,31.0,1031.0454545454545,656.3223140495868,313.40909090909093,1686.3636363636365,-167.1818181818182,-167.1818181818182,-167.1818181818182,0.0
2023-04-16 08:50:32:573116,-45.68181818181818,29.863636363636363,1032.4545454545455,631.8440082644628,307.04545454545456,1689.5454545454545,-166.8409090909091,-166.8409090909091,-166.8409090909091,0.0
2023-04-16 08:50:32:587399,-44.04545454545455,27.522727272727277,1033.7272727272727,607.6188016528926,318.1818181818182,1692.7272727272727,-166.63636363636363,-166.63636363636363,-166.63636363636363,0.0
2023-04-16 08:50:32:602705,-42.5,27.704545454545453,1035.6363636363635,584.948347107438,342.04545454545456,1695.909090909091,-166.4090909090909,-166.4090909090909,-166.4090909090909,0.0
2023-04-16 08:50:32:613402,-44.02272727272727,27.38636363636364,1036.340909090909,563.8326446280992,389.77272727272725,1692.7272727272727,-166.61363636363637,-166.61363636363637,-166.61363636363637,0.0
2023-04-16 08:50:32:627468,-43.70454545454545,27.84090909090909,1035.4545454545455,544.5247933884298,431.1363636363636,1695.909090909091,-166.75,-166.75,-166.75,0.0
2023-04-16 08:50:32:637507,-43.29545454545455,30.295454545454547,1035.0,526.6993801652893,455.0,1695.909090909091,-166.4318181818182,-166.4318181818182,-166.4318181818182,0.0
2023-04-16 08:50:32:653164,-41.59090909090909,32.40909090909091,1035.2272727272727,510.103305785124,477.27272727272725,1689.5454545454545,-166.61363636363637,-166.61363636363637,-166.61363636363637,0.0
2023-04-16 08:50:32:667455,-40.79545454545455,35.11363636363637,1035.7272727272727,493.1818181818182,520.2272727272727,1692.7272727272727,-166.61363636363637,-166.61363636363637,-166.61363636363637,0.0
2023-04-16 08:50:32:677657,-40.29545454545455,37.72727272727273,1036.3636363636365,475.5733471074381,580.6818181818181,1692.7272727272727,-166.5,-166.5,-166.5,0.0
2023-04-16 08:50:32:693358,-38.68181818181818,38.25,1037.0681818181818,457.0609504132231,637.9545454545455,1699.090909090909,-166.75,-166.75,-166.75,0.0
2023-04-16 08:50:32:702289,-41.38636363636363,39.93181818181818,1036.590909090909,437.6807851239669,744.5454545454545,1702.2727272727273,-166.95454545454547,-166.95454545454547,-166.95454545454547,0.0
2023-04-16 08:50:32:717656,-45.04545454545455,38.90909090909091,1034.5454545454545,417.6497933884297,809.7727272727273,1700.6818181818182,-166.95454545454547,-166.95454545454547,-166.95454545454547,0.0
2023-04-16 08:50:32:733374,-47.06818181818182,39.68181818181818,1031.8863636363635,398.0526859504132,840.0,1711.8181818181818,-167.22727272727272,-167.22727272727272,-167.22727272727272,0.0
2023-04-16 08:50:32:742299,-48.70454545454545,40.88636363636363,1029.1363636363635,378.3109504132231,876.5909090909091,1711.8181818181818,-167.70454545454547,-167.70454545454547,-167.70454545454547,0.0
2023-04-16 08:50:32:757702,-51.02272727272727,40.86363636363637,1028.3636363636365,358.49690082644634,875.0,1713.409090909091,-167.79545454545453,-167.79545454545453,-167.79545454545453,0.0
2023-04-16 08:50:32:768560,-51.97727272727273,41.56818181818182,1027.1136363636365,338.3935950413223,865.4545454545455,1719.7727272727273,-168.1818181818182,-168.1818181818182,-168.1818181818182,0.0
2023-04-16 08:50:32:782297,-52.5,43.31818181818182,1027.2272727272727,317.92871900826447,862.2727272727273,1722.9545454545455,-168.1818181818182,-168.1818181818182,-168.1818181818182,0.0
2023-04-16 08:50:32:797759,-55.06818181818182,43.5,1027.0227272727273,296.99380165289256,867.0454545454545,1724.5454545454545,-167.97727272727272,-167.97727272727272,-167.97727272727272,0.0
2023-04-16 08:50:32:808205,-58.77272727272727,43.34090909090909,1026.590909090909,274.86570247933884,857.5,1732.5,-167.86363636363637,-167.86363636363637,-167.86363636363637,0.0
2023-04-16 08:50:32:822285,-60.27272727272727,41.52272727272727,1024.8636363636365,251.0020661157025,816.1363636363636,1746.8181818181818,-167.75,-167.75,-167.75,0.0
2023-04-16 08:50:32:832761,-64.52272727272727,38.65909090909091,1023.8409090909092,225.6559917355372,763.6363636363636,1761.1363636363635,-167.5,-167.5,-167.5,0.0
2023-04-16 08:50:32:848223,-65.36363636363636,37.97727272727273,1023.7727272727273,199.4059917355372,663.4090909090909,1781.8181818181818,-167.29545454545453,-167.29545454545453,-167.29545454545453,0.0
2023-04-16 08:50:32:862295,-64.3409090909091,38.93181818181818,1024.2045454545455,173.26446280991738,548.8636363636364,1799.3181818181818,-166.97727272727272,-166.97727272727272,-166.97727272727272,0.0
2023-04-16 08:50:32:872759,-63.95454545454545,39.38636363636363,1025.4318181818182,147.1229338842975,445.45454545454544,1802.5,-166.63636363636363,-166.63636363636363,-166.63636363636363,0.0
2023-04-16 08:50:32:888213,-61.36363636363637,39.02272727272727,1028.2954545454545,121.16219008264464,343.6363636363636,1804.090909090909,-166.3409090909091,-166.3409090909091,-166.3409090909091,0.0
2023-04-16 08:50:32:897292,-60.22727272727273,37.63636363636363,1031.0227272727273,95.49070247933884,275.22727272727275,1800.909090909091,-166.11363636363637,-166.11363636363637,-166.11363636363637,0.0
2023-04-16 08:50:32:912716,-59.45454545454545,36.31818181818182,1032.5,70.97623966942149,219.54545454545453,1799.3181818181818,-165.75,-165.75,-165.75,0.0
2023-04-16 08:50:32:928227,-59.13636363636363,35.45454545454545,1033.1818181818182,48.05268595041321,163.86363636363637,1800.909090909091,-165.5681818181818,-165.5681818181818,-165.5681818181818,0.0
2023-04-16 08:50:32:937255,-59.95454545454545,32.25,1033.75,26.50309917355372,141.5909090909091,1794.5454545454545,-165.52272727272728,-165.52272727272728,-165.52272727272728,0.0
2023-04-16 08:50:32:953038,-57.38636363636363,32.43181818181818,1034.2954545454545,7.448347107438016,58.86363636363637,1810.4545454545453,-165.61363636363637,-165.61363636363637,-165.61363636363637,0.0
2023-04-16 08:50:32:963170,-55.27272727272727,32.22727272727273,1035.0,-10.304752066115704,14.318181818181818,1816.8181818181815,-165.54545454545453,-165.54545454545453,-165.54545454545453,0.0
2023-04-16 08:50:32:977424,-53.63636363636363,31.181818181818183,1035.0227272727273,-26.900826446280995,-25.454545454545453,1818.409090909091,-165.4090909090909,-165.4090909090909,-165.4090909090909,0.0
2023-04-16 08:50:32:992578,-49.43181818181818,31.90909090909091,1035.2954545454545,-41.94214876033058,-85.9090909090909,1824.7727272727277,-165.22727272727272,-165.22727272727272,-165.22727272727272,0.0
2023-04-16 08:50:33:003161,-48.52272727272727,32.65909090909091,1034.3181818181818,-56.51342975206612,-84.31818181818181,1820.0,-165.11363636363637,-165.11363636363637,-165.11363636363637,0.0
2023-04-16 08:50:33:017304,-48.36363636363637,33.09090909090909,1033.5454545454545,-70.72314049586777,-89.0909090909091,1816.8181818181815,-164.97727272727272,-164.97727272727272,-164.97727272727272,0.0
2023-04-16 08:50:33:027733,-45.70454545454545,34.25,1032.75,-83.92045454545455,-127.27272727272728,1820.0,-164.8181818181818,-164.8181818181818,-164.8181818181818,0.0
2023-04-16 08:50:33:043330,-45.95454545454545,35.13636363636363,1033.9318181818182,-96.43078512396691,-136.8181818181818,1815.2272727272727,-164.52272727272728,-164.52272727272728,-164.52272727272728,0.0
2023-04-16 08:50:33:057473,-44.72727272727273,33.27272727272727,1032.909090909091,-108.76033057851238,-147.95454545454547,1812.0454545454545,-164.86363636363637,-164.86363636363637,-164.86363636363637,0.0
2023-04-16 08:50:33:067706,-44.86363636363637,31.0,1028.1818181818182,-120.14979338842976,-149.54545454545453,1813.636363636364,-164.9090909090909,-164.9090909090909,-164.9090909090909,0.0
2023-04-16 08:50:33:083369,-44.75,28.681818181818183,1025.4318181818182,-129.6952479338843,-182.95454545454547,1812.0454545454545,-165.0681818181818,-165.0681818181818,-165.0681818181818,0.0
2023-04-16 08:50:33:092267,-43.81818181818182,25.295454545454547,1019.25,-137.5051652892562,-208.4090909090909,1813.636363636364,-165.3409090909091,-165.3409090909091,-165.3409090909091,0.0
2023-04-16 08:50:33:107697,-43.84090909090909,27.13636363636364,1018.3863636363636,-143.57954545454547,-268.8636363636364,1813.636363636364,-165.3409090909091,-165.3409090909091,-165.3409090909091,0.0
2023-04-16 08:50:33:123206,-43.61363636363637,28.34090909090909,1019.181818181818,-148.1714876033058,-315.0,1805.6818181818185,-165.3409090909091,-165.3409090909091,-165.3409090909091,0.0
2023-04-16 08:50:33:132260,-41.36363636363637,31.65909090909091,1017.4090909090908,-151.2809917355372,-367.5,1815.2272727272727,-165.13636363636363,-165.13636363636363,-165.13636363636363,0.0
2023-04-16 08:50:33:147714,-44.0,34.84090909090909,1014.931818181818,-154.24586776859505,-370.6818181818182,1807.2727272727277,-165.1818181818182,-165.1818181818182,-165.1818181818182,0.0
2023-04-16 08:50:33:158539,-47.11363636363637,37.20454545454545,1011.181818181818,-157.5361570247934,-389.77272727272725,1797.7272727272727,-165.0,-165.0,-165.0,0.0
2023-04-16 08:50:33:172446,-47.15909090909091,39.88636363636363,1007.2954545454544,-162.23657024793388,-517.0454545454545,1807.2727272727277,-164.88636363636363,-164.88636363636363,-164.88636363636363,0.0
2023-04-16 08:50:33:187861,-47.88636363636363,42.20454545454545,1004.9545454545456,-169.10640495867767,-607.7272727272727,1804.090909090909,-164.75,-164.75,-164.75,0.0
2023-04-16 08:50:33:197105,-46.27272727272727,43.72727272727273,1004.318181818182,-177.4948347107438,-766.8181818181819,1802.5,-164.52272727272728,-164.52272727272728,-164.52272727272728,0.0
2023-04-16 08:50:33:212448,-43.93181818181818,45.70454545454545,1009.2954545454544,-187.40185950413223,-925.9090909090908,1796.1363636363635,-164.38636363636363,-164.38636363636363,-164.38636363636363,0.0
2023-04-16 08:50:33:222780,-42.88636363636363,47.47727272727273,1015.5909090909092,-199.08057851239667,-1015.0,1772.2727272727273,-164.0681818181818,-164.0681818181818,-164.0681818181818,0.0
2023-04-16 08:50:33:237049,-40.40909090909091,47.84090909090909,1020.5909090909092,-210.831611570248,-1120.0,1743.6363636363635,-164.04545454545453,-164.04545454545453,-164.04545454545453,0.0
2023-04-16 08:50:33:252454,-39.29545454545455,46.29545454545455,1026.5,-221.9679752066116,-1201.1363636363635,1705.4545454545455,-163.9090909090909,-163.9090909090909,-163.9090909090909,0.0
2023-04-16 08:50:33:262908,-39.43181818181818,48.06818181818182,1030.0,-231.875,-1250.4545454545455,1662.5,-163.6590909090909,-163.6590909090909,-163.6590909090909,0.0
2023-04-16 08:50:33:277074,-35.27272727272727,47.81818181818182,1034.159090909091,-240.37190082644628,-1358.6363636363635,1624.3181818181818,-163.3181818181818,-163.3181818181818,-163.3181818181818,0.0
2023-04-16 08:50:33:287411,-32.02272727272727,49.75,1041.0454545454545,-247.7479338842975,-1395.2272727272727,1581.3636363636365,-163.3409090909091,-163.3409090909091,-163.3409090909091,0.0
2023-04-16 08:50:33:302987,-28.09090909090909,50.59090909090909,1049.0454545454545,-255.5940082644628,-1428.6363636363635,1543.1818181818182,-163.20454545454547,-163.20454545454547,-163.20454545454547,0.0
2023-04-16 08:50:33:317073,-24.272727272727277,48.61363636363637,1054.2045454545455,-264.0547520661157,-1428.6363636363635,1512.9545454545455,-162.9090909090909,-162.9090909090909,-162.9090909090909,0.0
2023-04-16 08:50:33:327480,-23.295454545454547,46.45454545454545,1058.25,-273.3109504132231,-1384.090909090909,1482.7272727272727,-162.6818181818182,-162.6818181818182,-162.6818181818182,0.0
2023-04-16 08:50:33:343044,-22.363636363636363,42.09090909090909,1062.4318181818182,-283.3264462809917,-1334.7727272727273,1450.909090909091,-162.61363636363637,-162.61363636363637,-162.61363636363637,0.0
2023-04-16 08:50:33:352147,-18.772727272727277,39.84090909090909,1066.2954545454545,-292.36570247933884,-1290.2272727272727,1431.8181818181818,-162.3409090909091,-162.3409090909091,-162.3409090909091,0.0
2023-04-16 08:50:33:367717,-14.704545454545457,36.72727272727273,1070.4545454545455,-300.13946280991735,-1217.0454545454545,1406.3636363636365,-162.47727272727272,-162.47727272727272,-162.47727272727272,0.0
2023-04-16 08:50:33:383292,-13.613636363636363,31.38636363636364,1069.1136363636365,-306.1776859504132,-1072.2727272727273,1376.1363636363635,-162.52272727272728,-162.52272727272728,-162.52272727272728,0.0
2023-04-16 08:50:33:392153,-11.590909090909092,32.77272727272727,1066.8636363636365,-308.7809917355372,-981.5909090909092,1358.6363636363635,-162.5,-162.5,-162.5,0.0
2023-04-16 08:50:33:407714,-8.022727272727273,33.45454545454545,1065.7954545454545,-308.34710743801656,-892.5,1333.1818181818182,-162.4318181818182,-162.4318181818182,-162.4318181818182,0.0
2023-04-16 08:50:33:417977,-6.7727272727272725,32.38636363636363,1065.2045454545455,-305.9607438016529,-773.1818181818181,1306.1363636363635,-162.52272727272728,-162.52272727272728,-162.52272727272728,0.0
2023-04-16 08:50:33:432233,-5.113636363636363,30.431818181818183,1064.3863636363635,-302.9597107438016,-645.9090909090909,1282.2727272727273,-162.5681818181818,-162.5681818181818,-162.5681818181818,0.0
2023-04-16 08:50:33:447707,-4.795454545454546,29.477272727272727,1062.8863636363635,-299.4886363636364,-499.54545454545456,1264.7727272727273,-162.77272727272728,-162.77272727272728,-162.77272727272728,0.0
2023-04-16 08:50:33:457981,-6.113636363636363,28.65909090909091,1059.0,-295.3667355371901,-377.04545454545456,1242.5,-163.11363636363637,-163.11363636363637,-163.11363636363637,0.0
2023-04-16 08:50:33:472376,-6.863636363636363,27.977272727272727,1054.159090909091,-290.37706611570246,-283.1818181818182,1221.8181818181818,-163.3409090909091,-163.3409090909091,-163.3409090909091,0.0
2023-04-16 08:50:33:482545,-7.613636363636363,29.15909090909091,1051.0454545454545,-285.7489669421488,-202.04545454545453,1194.7727272727273,-163.61363636363637,-163.61363636363637,-163.61363636363637,0.0
2023-04-16 08:50:33:497954,-6.840909090909091,29.90909090909091,1048.7954545454545,-282.0971074380165,-146.36363636363637,1167.7272727272727,-163.45454545454547,-163.45454545454547,-163.45454545454547,0.0
2023-04-16 08:50:33:512379,-7.045454545454546,31.454545454545453,1046.1363636363635,-279.1322314049587,-85.9090909090909,1140.6818181818182,-163.1818181818182,-163.1818181818182,-163.1818181818182,0.0
2023-04-16 08:50:33:522430,-7.75,31.818181818181817,1045.25,-278.26446280991735,-19.09090909090909,1096.1363636363635,-163.22727272727272,-163.22727272727272,-163.22727272727272,0.0
2023-04-16 08:50:33:537984,-7.977272727272727,31.09090909090909,1043.7272727272727,-278.51756198347107,28.63636363636364,1056.3636363636365,-163.13636363636363,-163.13636363636363,-163.13636363636363,0.0
2023-04-16 08:50:33:547658,-9.181818181818182,30.818181818181817,1042.2045454545455,-279.7830578512397,98.63636363636364,1010.2272727272727,-163.13636363636363,-163.13636363636363,-163.13636363636363,0.0
2023-04-16 08:50:33:562711,-11.954545454545457,31.022727272727277,1041.090909090909,-282.13326446281,151.13636363636363,964.0909090909092,-162.9090909090909,-162.9090909090909,-162.9090909090909,0.0
2023-04-16 08:50:33:578029,-12.568181818181818,30.59090909090909,1039.4772727272727,-284.5196280991736,165.45454545454547,919.5454545454544,-162.5681818181818,-162.5681818181818,-162.5681818181818,0.0
2023-04-16 08:50:33:587501,-14.295454545454543,29.40909090909091,1037.9772727272727,-287.05061983471074,179.77272727272728,870.2272727272727,-162.63636363636363,-162.63636363636363,-162.63636363636363,0.0
2023-04-16 08:50:33:602612,-14.818181818181818,29.13636363636364,1038.5,-289.6900826446281,176.5909090909091,820.9090909090909,-162.5681818181818,-162.5681818181818,-162.5681818181818,0.0
2023-04-16 08:50:33:612954,-13.272727272727272,28.63636363636364,1039.7272727272727,-292.40185950413223,162.27272727272728,771.5909090909091,-162.86363636363637,-162.86363636363637,-162.86363636363637,0.0
2023-04-16 08:50:33:627260,-13.590909090909092,29.068181818181817,1040.2954545454545,-295.3305785123967,171.8181818181818,725.4545454545455,-162.3181818181818,-162.3181818181818,-162.3181818181818,0.0
2023-04-16 08:50:33:642583,-12.068181818181818,31.477272727272727,1045.1363636363635,-299.63326446281,178.1818181818182,677.7272727272727,-162.25,-162.25,-162.25,0.0
2023-04-16 08:50:33:653074,-11.272727272727272,34.20454545454545,1050.3636363636365,-306.25,214.77272727272728,630.0,-162.02272727272728,-162.02272727272728,-162.02272727272728,0.0
2023-04-16 08:50:33:667269,-12.318181818181818,36.86363636363637,1056.0454545454545,-315.650826446281,257.72727272727275,582.2727272727273,-161.75,-161.75,-161.75,0.0
2023-04-16 08:50:33:677594,-11.181818181818182,34.36363636363637,1055.9545454545455,-327.7995867768595,326.1363636363636,542.5,-161.52272727272728,-161.52272727272728,-161.52272727272728,0.0
2023-04-16 08:50:33:693141,-11.863636363636363,33.97727272727273,1054.2272727272727,-342.3347107438016,386.59090909090907,504.3181818181818,-161.25,-161.25,-161.25,0.0
2023-04-16 08:50:33:707374,-13.659090909090908,30.84090909090909,1054.5227272727273,-358.8584710743802,426.3636363636364,455.0,-161.1818181818182,-161.1818181818182,-161.1818181818182,0.0
2023-04-16 08:50:33:717716,-11.977272727272728,28.727272727272727,1055.590909090909,-375.3460743801653,420.0,423.1818181818182,-161.0681818181818,-161.0681818181818,-161.0681818181818,0.0
2023-04-16 08:50:33:733270,-8.909090909090908,27.59090909090909,1059.2045454545455,-391.7613636363636,412.04545454545456,389.77272727272725,-160.97727272727272,-160.97727272727272,-160.97727272727272,0.0
2023-04-16 08:50:33:742337,-9.931818181818182,23.63636363636364,1062.3636363636365,-408.3935950413224,494.77272727272725,343.6363636363636,-160.88636363636363,-160.88636363636363,-160.88636363636363,0.0
2023-04-16 08:50:33:757838,-7.227272727272727,21.0,1065.2045454545455,-423.9772727272728,526.5909090909091,319.77272727272725,-160.63636363636363,-160.63636363636363,-160.63636363636363,0.0
2023-04-16 08:50:33:773393,-8.409090909090908,18.318181818181817,1067.659090909091,-439.1632231404958,642.7272727272727,284.77272727272725,-160.52272727272728,-160.52272727272728,-160.52272727272728,0.0
2023-04-16 08:50:33:782320,-10.272727272727272,14.181818181818182,1064.7727272727273,-453.8429752066115,774.7727272727273,254.54545454545453,-160.5,-160.5,-160.5,0.0
2023-04-16 08:50:33:797884,-11.909090909090908,11.022727272727272,1058.2727272727273,-466.7871900826447,843.1818181818181,246.5909090909091,-160.54545454545453,-160.54545454545453,-160.54545454545453,0.0
2023-04-16 08:50:33:808306,-15.727272727272728,8.5,1052.2272727272727,-478.7913223140496,922.7272727272727,235.45454545454547,-160.47727272727272,-160.47727272727272,-160.47727272727272,0.0
2023-04-16 08:50:33:822378,-17.272727272727273,6.818181818181818,1046.2272727272727,-489.7107438016529,940.2272727272727,232.27272727272728,-160.6818181818182,-160.6818181818182,-160.6818181818182,0.0
2023-04-16 08:50:33:837698,-18.431818181818183,3.136363636363636,1042.9772727272727,-499.9793388429752,938.6363636363636,233.8636363636364,-160.5909090909091,-160.5909090909091,-160.5909090909091,0.0
2023-04-16 08:50:33:848292,-20.795454545454547,1.5,1039.4545454545455,-509.3440082644629,956.1363636363636,232.27272727272728,-160.45454545454547,-160.45454545454547,-160.45454545454547,0.0
2023-04-16 08:50:33:862382,-19.318181818181817,-0.1590909090909091,1034.7727272727273,-517.2262396694215,916.3636363636364,243.4090909090909,-160.4318181818182,-160.4318181818182,-160.4318181818182,0.0
2023-04-16 08:50:33:872663,-20.772727272727277,-2.7045454545454546,1028.2045454545455,-522.8305785123968,914.7727272727273,240.22727272727272,-160.29545454545453,-160.29545454545453,-160.29545454545453,0.0
2023-04-16 08:50:33:888438,-21.90909090909091,-2.659090909090909,1024.75,-525.2169421487604,878.1818181818181,233.8636363636364,-160.22727272727272,-160.22727272727272,-160.22727272727272,0.0
2023-04-16 08:50:33:902463,-20.272727272727277,-1.568181818181818,1020.1136363636364,-523.9152892561983,820.9090909090909,232.27272727272728,-160.1818181818182,-160.1818181818182,-160.1818181818182,0.0
2023-04-16 08:50:33:912687,-19.59090909090909,1.4090909090909092,1016.431818181818,-518.7448347107438,773.1818181818181,219.54545454545453,-159.97727272727272,-159.97727272727272,-159.97727272727272,0.0
2023-04-16 08:50:33:928254,-21.613636363636363,1.1363636363636365,1012.318181818182,-511.36880165289256,709.5454545454545,198.8636363636364,-160.0909090909091,-160.0909090909091,-160.0909090909091,0.0
2023-04-16 08:50:33:937348,-22.977272727272727,3.022727272727273,1007.318181818182,-501.67871900826447,618.8636363636364,184.54545454545453,-159.86363636363637,-159.86363636363637,-159.86363636363637,0.0
2023-04-16 08:50:33:952787,-20.113636363636363,7.636363636363637,1008.4545454545456,-489.8915289256198,475.6818181818182,171.8181818181818,-159.88636363636363,-159.88636363636363,-159.88636363636363,0.0
2023-04-16 08:50:33:968250,-19.568181818181817,7.340909090909091,1011.7272727272727,-478.32128099173553,407.27272727272725,146.36363636363637,-159.8409090909091,-159.8409090909091,-159.8409090909091,0.0
2023-04-16 08:50:33:977721,-18.113636363636363,9.295454545454543,1013.318181818182,-467.3657024793389,350.0,128.86363636363637,-159.97727272727272,-159.97727272727272,-159.97727272727272,0.0
2023-04-16 08:50:33:992745,-15.772727272727272,10.659090909090908,1015.568181818182,-456.8801652892562,305.45454545454544,106.5909090909091,-159.75,-159.75,-159.75,0.0
2023-04-16 08:50:34:001983,-16.522727272727273,11.568181818181818,1018.0227272727273,-446.39462809917353,287.95454545454544,79.54545454545455,-159.6818181818182,-159.6818181818182,-159.6818181818182,0.0
2023-04-16 08:50:34:017672,-16.454545454545453,11.318181818181818,1019.5,-435.8367768595041,249.77272727272728,55.68181818181818,-159.3409090909091,-159.3409090909091,-159.3409090909091,0.0
2023-04-16 08:50:34:032760,-15.727272727272728,12.931818181818182,1022.2954545454544,-425.4235537190083,214.77272727272728,39.77272727272727,-158.95454545454547,-158.95454545454547,-158.95454545454547,0.0
2023-04-16 08:50:34:041936,-16.25,14.159090909090908,1024.7954545454545,-415.7334710743802,208.4090909090909,20.681818181818183,-158.8181818181818,-158.8181818181818,-158.8181818181818,0.0
2023-04-16 08:50:34:057354,-15.181818181818182,13.818181818181818,1026.6363636363635,-405.8626033057851,175.0,11.136363636363637,-158.6818181818182,-158.6818181818182,-158.6818181818182,0.0
2023-04-16 08:50:34:067741,-15.409090909090908,15.045454545454543,1028.2045454545455,-395.521694214876,170.22727272727272,0.0,-158.5681818181818,-158.5681818181818,-158.5681818181818,0.0
2023-04-16 08:50:34:082167,-15.340909090909092,15.454545454545457,1029.590909090909,-385.0361570247933,170.22727272727272,-6.363636363636363,-158.5681818181818,-158.5681818181818,-158.5681818181818,0.0
2023-04-16 08:50:34:097358,-14.818181818181818,15.590909090909092,1032.0227272727273,-374.2252066115703,171.8181818181818,-11.136363636363637,-158.25,-158.25,-158.25,0.0
2023-04-16 08:50:34:107744,-16.75,16.068181818181817,1033.1136363636365,-363.6673553719008,200.45454545454547,-19.09090909090909,-158.1818181818182,-158.1818181818182,-158.1818181818182,0.0
2023-04-16 08:50:34:122196,-17.727272727272727,16.636363636363637,1034.340909090909,-353.68801652892563,197.27272727272728,-17.5,-157.9090909090909,-157.9090909090909,-157.9090909090909,0.0
2023-04-16 08:50:34:132330,-18.363636363636363,16.431818181818183,1034.840909090909,-344.72107438016525,206.8181818181818,-14.318181818181818,-158.11363636363637,-158.11363636363637,-158.11363636363637,0.0
2023-04-16 08:50:34:147805,-19.727272727272727,15.727272727272728,1036.090909090909,-336.7665289256198,216.3636363636364,-11.136363636363637,-158.5,-158.5,-158.5,0.0
2023-04-16 08:50:34:162298,-19.75,15.772727272727272,1036.909090909091,-329.426652892562,219.54545454545453,-3.1818181818181817,-158.5,-158.5,-158.5,0.0
2023-04-16 08:50:34:172358,-20.431818181818183,14.931818181818182,1036.8863636363635,-322.99070247933884,233.8636363636364,3.1818181818181817,-158.5909090909091,-158.5909090909091,-158.5909090909091,0.0
2023-04-16 08:50:34:187956,-22.454545454545453,15.340909090909092,1036.3636363636365,-317.0247933884297,260.90909090909093,12.727272727272728,-158.5681818181818,-158.5681818181818,-158.5681818181818,0.0
2023-04-16 08:50:34:197006,-22.477272727272727,16.0,1037.3863636363635,-311.20351239669424,262.5,19.09090909090909,-158.88636363636363,-158.88636363636363,-158.88636363636363,0.0
2023-04-16 08:50:34:212440,-24.09090909090909,16.15909090909091,1037.1363636363635,-305.129132231405,286.3636363636364,20.681818181818183,-158.8181818181818,-158.8181818181818,-158.8181818181818,0.0
2023-04-16 08:50:34:227915,-25.295454545454547,16.09090909090909,1036.3181818181818,-298.4039256198347,295.90909090909093,23.863636363636363,-159.1818181818182,-159.1818181818182,-159.1818181818182,0.0
2023-04-16 08:50:34:236996,-25.227272727272727,15.136363636363637,1035.8181818181818,-290.6663223140496,286.3636363636364,27.045454545454547,-159.25,-159.25,-159.25,0.0
2023-04-16 08:50:34:252553,-26.681818181818183,14.181818181818182,1034.4545454545455,-281.80785123966945,294.3181818181818,20.681818181818183,-159.47727272727272,-159.47727272727272,-159.47727272727272,0.0
2023-04-16 08:50:34:262728,-26.477272727272727,12.75,1034.4545454545455,-271.6838842975207,265.6818181818182,20.681818181818183,-159.6590909090909,-159.6590909090909,-159.6590909090909,0.0
2023-04-16 08:50:34:277052,-27.181818181818183,12.5,1034.159090909091,-260.14979338842977,259.3181818181818,20.681818181818183,-159.6818181818182,-159.6818181818182,-159.6818181818182,0.0
2023-04-16 08:50:34:292577,-28.363636363636363,11.5,1033.2727272727273,-248.29028925619835,249.77272727272728,19.09090909090909,-159.61363636363637,-159.61363636363637,-159.61363636363637,0.0
2023-04-16 08:50:34:302699,-28.431818181818183,11.590909090909092,1032.6363636363635,-235.77995867768595,233.8636363636364,28.63636363636364,-159.6818181818182,-159.6818181818182,-159.6818181818182,0.0
2023-04-16 08:50:34:317034,-27.38636363636364,11.431818181818182,1033.5681818181818,-222.32954545454547,216.3636363636364,30.227272727272727,-160.02272727272728,-160.02272727272728,-160.02272727272728,0.0
2023-04-16 08:50:34:327500,-27.545454545454547,10.772727272727272,1033.590909090909,-208.44524793388427,210.0,30.227272727272727,-159.88636363636363,-159.88636363636363,-159.88636363636363,0.0
2023-04-16 08:50:34:342784,-26.818181818181817,11.318181818181818,1033.8863636363635,-193.94628099173556,186.13636363636363,30.227272727272727,-159.88636363636363,-159.88636363636363,-159.88636363636363,0.0
2023-04-16 08:50:34:357034,-26.63636363636364,11.272727272727272,1032.75,-179.2665289256198,184.54545454545453,30.227272727272727,-159.97727272727272,-159.97727272727272,-159.97727272727272,0.0
2023-04-16 08:50:34:367614,-26.454545454545453,10.840909090909092,1032.9318181818182,-164.87603305785126,167.04545454545453,28.63636363636364,-159.9090909090909,-159.9090909090909,-159.9090909090909,0.0
2023-04-16 08:50:34:382857,-25.545454545454547,10.477272727272728,1033.4772727272727,-150.48553719008265,141.5909090909091,25.454545454545453,-159.70454545454547,-159.70454545454547,-159.70454545454547,0.0
2023-04-16 08:50:34:392004,-25.454545454545453,10.295454545454543,1032.840909090909,-136.56508264462812,136.8181818181818,25.454545454545453,-159.54545454545453,-159.54545454545453,-159.54545454545453,0.0
2023-04-16 08:50:34:407613,-24.65909090909091,9.977272727272728,1033.1363636363635,-122.8254132231405,119.3181818181818,25.454545454545453,-159.29545454545453,-159.29545454545453,-159.29545454545453,0.0
2023-04-16 08:50:34:422804,-23.931818181818183,9.045454545454543,1032.909090909091,-109.55578512396696,112.95454545454544,28.63636363636364,-159.22727272727272,-159.22727272727272,-159.22727272727272,0.0
2023-04-16 08:50:34:431991,-24.931818181818183,9.159090909090908,1032.2272727272727,-97.1900826446281,132.04545454545453,22.272727272727277,-158.8409090909091,-158.8409090909091,-158.8409090909091,0.0
2023-04-16 08:50:34:447512,-25.15909090909091,10.318181818181818,1032.7272727272727,-85.6198347107438,128.86363636363637,20.681818181818183,-158.5,-158.5,-158.5,0.0
2023-04-16 08:50:34:457770,-26.045454545454547,11.5,1033.0227272727273,-75.85743801652892,120.9090909090909,19.09090909090909,-158.25,-158.25,-158.25,0.0
2023-04-16 08:50:34:472141,-26.795454545454547,12.772727272727272,1034.659090909091,-68.62603305785125,122.5,12.727272727272728,-158.29545454545453,-158.29545454545453,-158.29545454545453,0.0
2023-04-16 08:50:34:487380,-28.40909090909091,14.613636363636363,1035.0454545454545,-64.21487603305785,120.9090909090909,11.136363636363637,-158.1818181818182,-158.1818181818182,-158.1818181818182,0.0
2023-04-16 08:50:34:497793,-28.295454545454547,15.568181818181818,1035.9318181818182,-62.696280991735534,117.72727272727272,9.545454545454543,-158.11363636363637,-158.11363636363637,-158.11363636363637,0.0
2023-04-16 08:50:34:512142,-29.022727272727277,15.363636363636363,1036.5227272727273,-64.43181818181819,128.86363636363637,7.954545454545454,-158.0681818181818,-158.0681818181818,-158.0681818181818,0.0
2023-04-16 08:50:34:522509,-29.15909090909091,14.886363636363637,1036.5227272727273,-68.73450413223141,127.27272727272728,9.545454545454543,-158.04545454545453,-158.04545454545453,-158.04545454545453,0.0
2023-04-16 08:50:34:537918,-30.204545454545453,14.772727272727272,1036.2272727272727,-74.59194214876032,143.1818181818182,6.363636363636363,-157.9090909090909,-157.9090909090909,-157.9090909090909,0.0
2023-04-16 08:50:34:552107,-31.522727272727277,14.045454545454543,1035.5454545454545,-81.35330578512396,157.5,1.5909090909090908,-157.70454545454547,-157.70454545454547,-157.70454545454547,0.0
2023-04-16 08:50:34:562333,-33.0,14.477272727272728,1034.1136363636365,-88.4400826446281,151.13636363636363,1.5909090909090908,-157.86363636363637,-157.86363636363637,-157.86363636363637,0.0
2023-04-16 08:50:34:577895,-34.43181818181818,14.068181818181818,1032.5227272727273,-95.99690082644628,146.36363636363637,1.5909090909090908,-157.79545454545453,-157.79545454545453,-157.79545454545453,0.0
2023-04-16 08:50:34:587042,-34.11363636363637,14.477272727272728,1031.9545454545455,-103.91528925619834,122.5,7.954545454545454,-158.0,-158.0,-158.0,0.0
2023-04-16 08:50:34:602398,-34.88636363636363,13.727272727272728,1030.6363636363635,-112.66528925619836,122.5,11.136363636363637,-158.11363636363637,-158.11363636363637,-158.11363636363637,0.0
2023-04-16 08:50:34:617919,-33.93181818181818,13.636363636363637,1031.4318181818182,-121.41528925619834,92.27272727272728,15.909090909090908,-158.22727272727272,-158.22727272727272,-158.22727272727272,0.0
2023-04-16 08:50:34:627096,-33.38636363636363,12.886363636363637,1031.409090909091,-130.85227272727272,92.27272727272728,23.863636363636363,-158.22727272727272,-158.22727272727272,-158.22727272727272,0.0
2023-04-16 08:50:34:642427,-32.93181818181818,11.636363636363637,1032.4318181818182,-140.9400826446281,87.5,28.63636363636364,-158.4090909090909,-158.4090909090909,-158.4090909090909,0.0
2023-04-16 08:50:34:652747,-32.06818181818182,11.068181818181818,1033.0,-151.06404958677683,74.77272727272727,31.818181818181817,-158.52272727272728,-158.52272727272728,-158.52272727272728,0.0
2023-04-16 08:50:34:667101,-32.47727272727273,10.704545454545457,1031.6136363636365,-161.00723140495867,81.13636363636364,36.59090909090909,-158.79545454545453,-158.79545454545453,-158.79545454545453,0.0
2023-04-16 08:50:34:682537,-32.04545454545455,10.590909090909092,1030.840909090909,-170.44421487603307,74.77272727272727,41.36363636363637,-158.88636363636363,-158.88636363636363,-158.88636363636363,0.0
2023-04-16 08:50:34:692720,-31.545454545454547,9.431818181818182,1029.3181818181818,-178.90495867768595,71.5909090909091,46.13636363636363,-159.0909090909091,-159.0909090909091,-159.0909090909091,0.0
2023-04-16 08:50:34:707128,-30.772727272727277,8.681818181818182,1029.5454545454545,-185.9917355371901,57.27272727272727,47.72727272727273,-159.22727272727272,-159.22727272727272,-159.22727272727272,0.0
2023-04-16 08:50:34:717501,-29.272727272727277,8.136363636363637,1029.4545454545455,-191.849173553719,47.72727272727273,50.90909090909091,-159.25,-159.25,-159.25,0.0
2023-04-16 08:50:34:732865,-28.363636363636363,7.840909090909091,1029.590909090909,-196.69421487603304,50.90909090909091,54.09090909090909,-159.25,-159.25,-159.25,0.0
2023-04-16 08:50:34:747229,-28.13636363636364,6.954545454545454,1029.4545454545455,-200.52685950413223,46.13636363636363,54.09090909090909,-159.3181818181818,-159.3181818181818,-159.3181818181818,0.0
2023-04-16 08:50:34:757427,-26.90909090909091,5.681818181818182,1029.5,-203.5640495867769,39.77272727272727,55.68181818181818,-159.13636363636363,-159.13636363636363,-159.13636363636363,0.0
2023-04-16 08:50:34:772917,-28.15909090909091,5.363636363636363,1029.409090909091,-205.8780991735537,50.90909090909091,58.86363636363637,-158.88636363636363,-158.88636363636363,-158.88636363636363,0.0
2023-04-16 08:50:34:781772,-26.88636363636364,4.318181818181818,1030.6136363636365,-207.1074380165289,27.045454545454547,63.63636363636363,-158.63636363636363,-158.63636363636363,-158.63636363636363,0.0
2023-04-16 08:50:34:798063,-25.88636363636364,3.25,1031.5,-207.10743801652896,11.136363636363637,66.81818181818181,-158.4090909090909,-158.4090909090909,-158.4090909090909,0.0
2023-04-16 08:50:34:813261,-25.477272727272727,3.1818181818181817,1033.1136363636365,-205.7696280991736,15.909090909090908,71.5909090909091,-158.20454545454547,-158.20454545454547,-158.20454545454547,0.0
2023-04-16 08:50:34:823239,-23.5,3.886363636363636,1036.3636363636365,-203.05785123966945,3.1818181818181817,79.54545454545455,-157.9090909090909,-157.9090909090909,-157.9090909090909,0.0
2023-04-16 08:50:34:837795,-23.181818181818183,4.931818181818182,1038.3181818181818,-199.5867768595041,33.40909090909091,84.31818181818181,-157.72727272727272,-157.72727272727272,-157.72727272727272,0.0
2023-04-16 08:50:34:847774,-23.545454545454547,5.477272727272728,1038.659090909091,-196.07954545454547,65.22727272727273,87.5,-157.6590909090909,-157.6590909090909,-157.6590909090909,0.0
2023-04-16 08:50:34:862119,-24.363636363636363,6.727272727272728,1038.7727272727273,-192.35537190082644,95.45454545454544,92.27272727272728,-157.70454545454547,-157.70454545454547,-157.70454545454547,0.0
2023-04-16 08:50:34:877821,-25.75,7.409090909090909,1038.659090909091,-189.02892561983472,119.3181818181818,92.27272727272728,-157.63636363636363,-157.63636363636363,-157.63636363636363,0.0
2023-04-16 08:50:34:887770,-27.15909090909091,7.75,1037.7045454545455,-185.9555785123967,141.5909090909091,97.04545454545456,-157.36363636363637,-157.36363636363637,-157.36363636363637,0.0
2023-04-16 08:50:34:903413,-28.65909090909091,7.75,1037.090909090909,-183.31611570247932,159.0909090909091,98.63636363636364,-157.5681818181818,-157.5681818181818,-157.5681818181818,0.0
2023-04-16 08:50:34:912423,-30.295454545454547,8.704545454545455,1036.0227272727273,-180.71280991735537,165.45454545454547,105.0,-157.5681818181818,-157.5681818181818,-157.5681818181818,0.0
2023-04-16 08:50:34:928343,-31.272727272727277,9.227272727272728,1036.7727272727273,-177.89256198347107,167.04545454545453,105.0,-157.5681818181818,-157.5681818181818,-157.5681818181818,0.0
2023-04-16 08:50:34:942245,-32.40909090909091,9.159090909090908,1036.159090909091,-174.89152892561984,170.22727272727272,108.1818181818182,-157.52272727272728,-157.52272727272728,-157.52272727272728,0.0
2023-04-16 08:50:34:952807,-33.06818181818182,9.75,1036.159090909091,-171.78202479338844,171.8181818181818,109.77272727272728,-157.6590909090909,-157.6590909090909,-157.6590909090909,0.0
2023-04-16 08:50:34:971989,-35.27272727272727,9.795454545454543,1035.3181818181818,-168.56404958677686,168.63636363636363,111.36363636363636,-157.61363636363637,-157.61363636363637,-157.61363636363637,0.0
2023-04-16 08:50:34:979303,-37.88636363636363,10.522727272727272,1033.8181818181818,-165.599173553719,155.9090909090909,116.13636363636364,-157.95454545454547,-157.95454545454547,-157.95454545454547,0.0
2023-04-16 08:50:34:992531,-40.65909090909091,10.636363636363637,1032.9318181818182,-162.92355371900828,128.86363636363637,119.3181818181818,-158.1590909090909,-158.1590909090909,-158.1590909090909,0.0
2023-04-16 08:50:35:008062,-42.79545454545455,11.022727272727272,1032.6818181818182,-160.46487603305786,63.63636363636363,130.45454545454547,-158.36363636363637,-158.36363636363637,-158.36363636363637,0.0
2023-04-16 08:50:35:017267,-44.22727272727273,11.568181818181818,1032.5,-158.62086776859505,-6.363636363636363,141.5909090909091,-158.77272727272728,-158.77272727272728,-158.77272727272728,0.0
2023-04-16 08:50:35:032580,-43.88636363636363,12.886363636363637,1033.1136363636365,-156.95764462809916,-81.13636363636364,154.3181818181818,-159.29545454545453,-159.29545454545453,-159.29545454545453,0.0
2023-04-16 08:50:35:043037,-43.09090909090909,14.772727272727272,1033.2954545454545,-155.04132231404958,-170.22727272727272,165.45454545454547,-159.5681818181818,-159.5681818181818,-159.5681818181818,0.0
2023-04-16 08:50:35:057172,-41.93181818181818,16.681818181818183,1032.0227272727273,-153.05268595041323,-238.63636363636363,171.8181818181818,-159.95454545454547,-159.95454545454547,-159.95454545454547,0.0
2023-04-16 08:50:35:072616,-42.68181818181818,19.045454545454547,1030.0227272727273,-150.88326446280993,-307.04545454545456,175.0,-159.95454545454547,-159.95454545454547,-159.95454545454547,0.0
2023-04-16 08:50:35:083245,-41.25,23.59090909090909,1029.8181818181818,-148.60537190082644,-407.27272727272725,184.54545454545453,-160.20454545454547,-160.20454545454547,-160.20454545454547,0.0
2023-04-16 08:50:35:097235,-41.29545454545455,26.34090909090909,1029.7272727272727,-148.56921487603304,-458.1818181818182,184.54545454545453,-160.29545454545453,-160.29545454545453,-160.29545454545453,0.0
2023-04-16 08:50:35:107608,-40.18181818181818,28.84090909090909,1030.3181818181818,-151.02789256198346,-526.5909090909091,192.5,-160.5,-160.5,-160.5,0.0
2023-04-16 08:50:35:122941,-38.61363636363637,30.727272727272727,1030.8863636363635,-156.70454545454547,-591.8181818181819,206.8181818181818,-160.70454545454547,-160.70454545454547,-160.70454545454547,0.0
2023-04-16 08:50:35:137226,-36.93181818181818,30.75,1032.590909090909,-165.9607438016529,-615.6818181818181,221.13636363636363,-160.75,-160.75,-160.75,0.0
2023-04-16 08:50:35:147699,-34.36363636363637,29.84090909090909,1033.2045454545455,-178.03719008264463,-639.5454545454545,237.04545454545453,-160.88636363636363,-160.88636363636363,-160.88636363636363,0.0
2023-04-16 08:50:35:162957,-32.27272727272727,27.25,1034.25,-192.06611570247927,-630.0,246.5909090909091,-160.77272727272728,-160.77272727272728,-160.77272727272728,0.0
2023-04-16 08:50:35:172168,-29.59090909090909,24.65909090909091,1035.3863636363635,-206.92665289256195,-615.6818181818181,259.3181818181818,-160.70454545454547,-160.70454545454547,-160.70454545454547,0.0
2023-04-16 08:50:35:187659,-27.454545454545453,20.272727272727277,1034.4318181818182,-222.8357438016529,-572.7272727272727,272.04545454545456,-160.29545454545453,-160.29545454545453,-160.29545454545453,0.0
2023-04-16 08:50:35:202985,-26.88636363636364,15.454545454545457,1033.3863636363635,-238.41942148760333,-507.5,281.59090909090907,-160.04545454545453,-160.04545454545453,-160.04545454545453,0.0
2023-04-16 08:50:35:212145,-25.318181818181817,11.431818181818182,1032.3636363636365,-253.02685950413223,-458.1818181818182,295.90909090909093,-159.8409090909091,-159.8409090909091,-159.8409090909091,0.0
2023-04-16 08:50:35:227729,-24.727272727272727,8.022727272727273,1031.75,-266.5857438016529,-394.54545454545456,316.59090909090907,-159.70454545454547,-159.70454545454547,-159.70454545454547,0.0
2023-04-16 08:50:35:237937,-24.75,4.159090909090909,1030.7727272727273,-279.1683884297521,-334.09090909090907,338.8636363636364,-159.54545454545453,-159.54545454545453,-159.54545454545453,0.0
2023-04-16 08:50:35:252332,-23.863636363636363,2.159090909090909,1030.9772727272727,-290.77479338842977,-278.40909090909093,369.09090909090907,-159.4090909090909,-159.4090909090909,-159.4090909090909,0.0
2023-04-16 08:50:35:267589,-22.59090909090909,1.4545454545454546,1032.5454545454545,-301.6942148760331,-227.5,399.3181818181818,-159.22727272727272,-159.22727272727272,-159.22727272727272,0.0
2023-04-16 08:50:35:277981,-21.204545454545453,1.3636363636363635,1033.4545454545455,-312.39669421487605,-160.6818181818182,431.1363636363636,-159.04545454545453,-159.04545454545453,-159.04545454545453,0.0
2023-04-16 08:50:35:292434,-20.40909090909091,1.1136363636363635,1034.2727272727273,-323.35227272727275,-79.54545454545455,459.77272727272725,-158.8181818181818,-158.8181818181818,-158.8181818181818,0.0
2023-04-16 08:50:35:302571,-19.772727272727277,0.6590909090909091,1035.0454545454545,-334.452479338843,0.0,483.6363636363636,-158.88636363636363,-158.88636363636363,-158.88636363636363,0.0
2023-04-16 08:50:35:317854,-20.318181818181817,1.5227272727272727,1035.3181818181818,-345.2995867768595,103.4090909090909,497.95454545454544,-158.79545454545453,-158.79545454545453,-158.79545454545453,0.0
2023-04-16 08:50:35:332288,-21.818181818181817,1.0909090909090908,1034.6363636363635,-355.78512396694214,198.8636363636364,507.5,-159.0681818181818,-159.0681818181818,-159.0681818181818,0.0
2023-04-16 08:50:35:342543,-22.045454545454547,1.2727272727272727,1033.9772727272727,-365.47520661157023,272.04545454545456,513.8636363636364,-159.1818181818182,-159.1818181818182,-159.1818181818182,0.0
2023-04-16 08:50:35:358069,-24.113636363636363,1.7954545454545454,1032.8863636363635,-374.1528925619834,356.3636363636364,507.5,-159.5681818181818,-159.5681818181818,-159.5681818181818,0.0
2023-04-16 08:50:35:367234,-25.181818181818183,1.1363636363636365,1032.1818181818182,-381.9989669421488,424.77272727272725,501.1363636363636,-159.72727272727272,-159.72727272727272,-159.72727272727272,0.0
2023-04-16 08:50:35:382590,-25.84090909090909,1.5227272727272727,1031.659090909091,-389.1580578512396,480.45454545454544,491.59090909090907,-159.86363636363637,-159.86363636363637,-159.86363636363637,0.0
2023-04-16 08:50:35:398079,-27.84090909090909,1.3863636363636365,1030.1818181818182,-395.7747933884297,548.8636363636364,480.45454545454544,-160.0,-160.0,-160.0,0.0
2023-04-16 08:50:35:407228,-28.454545454545453,0.8409090909090909,1027.909090909091,-401.4152892561984,590.2272727272727,474.09090909090907,-160.25,-160.25,-160.25,0.0
2023-04-16 08:50:35:422616,-30.022727272727277,1.3409090909090908,1028.0681818181818,-405.9349173553719,625.2272727272727,469.3181818181818,-160.38636363636363,-160.38636363636363,-160.38636363636363,0.0
2023-04-16 08:50:35:433046,-30.363636363636363,1.8636363636363635,1028.4545454545455,-409.5144628099173,645.9090909090909,467.7272727272728,-160.3181818181818,-160.3181818181818,-160.3181818181818,0.0
2023-04-16 08:50:35:447280,-31.15909090909091,2.340909090909091,1028.75,-412.0092975206612,665.0,467.7272727272728,-160.4090909090909,-160.4090909090909,-160.4090909090909,0.0
2023-04-16 08:50:35:462611,-33.22727272727273,2.7045454545454546,1029.159090909091,-413.5640495867768,680.9090909090909,467.7272727272728,-160.5681818181818,-160.5681818181818,-160.5681818181818,0.0
2023-04-16 08:50:35:472920,-33.59090909090909,4.5,1031.0454545454545,-414.25103305785126,665.0,475.6818181818182,-160.8409090909091,-160.8409090909091,-160.8409090909091,0.0
2023-04-16 08:50:35:487244,-33.65909090909091,4.590909090909091,1033.659090909091,-415.0464876033057,671.3636363636364,477.27272727272725,-160.95454545454547,-160.95454545454547,-160.95454545454547,0.0
2023-04-16 08:50:35:497615,-33.45454545454545,5.5227272727272725,1036.2954545454545,-415.7334710743801,665.0,483.6363636363636,-161.13636363636363,-161.13636363636363,-161.13636363636363,0.0
2023-04-16 08:50:35:513312,-32.22727272727273,6.727272727272728,1039.7727272727273,-416.67355371900817,674.5454545454545,488.4090909090909,-161.38636363636363,-161.38636363636363,-161.38636363636363,0.0
2023-04-16 08:50:35:527366,-32.25,7.590909090909091,1042.25,-418.1198347107438,706.3636363636364,493.1818181818182,-161.5909090909091,-161.5909090909091,-161.5909090909091,0.0
2023-04-16 08:50:35:537610,-30.63636363636364,8.977272727272727,1043.5681818181818,-419.9276859504132,736.5909090909091,499.54545454545456,-161.79545454545453,-161.79545454545453,-161.79545454545453,0.0
2023-04-16 08:50:35:553003,-29.863636363636363,9.613636363636363,1044.409090909091,-421.9163223140495,773.1818181818181,504.3181818181818,-162.04545454545453,-162.04545454545453,-162.04545454545453,0.0
2023-04-16 08:50:35:562147,-28.5,11.909090909090908,1046.1363636363635,-423.8326446280992,808.1818181818181,507.5,-161.86363636363637,-161.86363636363637,-161.86363636363637,0.0
2023-04-16 08:50:35:577555,-26.113636363636363,12.636363636363637,1049.8863636363635,-425.8935950413224,857.5,510.6818181818182,-161.86363636363637,-161.86363636363637,-161.86363636363637,0.0
2023-04-16 08:50:35:592996,-23.977272727272727,12.227272727272728,1054.0454545454545,-428.1714876033058,932.2727272727273,513.8636363636364,-161.6818181818182,-161.6818181818182,-161.6818181818182,0.0
2023-04-16 08:50:35:602198,-22.59090909090909,11.0,1059.4772727272727,-430.521694214876,1038.8636363636365,517.0454545454545,-161.5681818181818,-161.5681818181818,-161.5681818181818,0.0
2023-04-16 08:50:35:617951,-21.568181818181817,8.340909090909092,1063.2954545454545,-433.08884297520666,1170.909090909091,523.4090909090909,-161.38636363636363,-161.38636363636363,-161.38636363636363,0.0
2023-04-16 08:50:35:627971,-19.681818181818183,5.568181818181818,1067.9545454545455,-435.1136363636364,1298.1818181818182,534.5454545454545,-161.3181818181818,-161.3181818181818,-161.3181818181818,0.0
2023-04-16 08:50:35:642406,-19.181818181818183,4.681818181818182,1068.75,-436.1260330578512,1457.2727272727273,540.9090909090909,-161.61363636363637,-161.61363636363637,-161.61363636363637,0.0
2023-04-16 08:50:35:657766,-20.795454545454547,1.7272727272727273,1067.0227272727273,-435.5836776859505,1624.3181818181818,544.0909090909091,-161.29545454545453,-161.29545454545453,-161.29545454545453,0.0
2023-04-16 08:50:35:667930,-22.545454545454547,2.0454545454545454,1062.840909090909,-430.5940082644629,1750.0,547.2727272727273,-161.0909090909091,-161.0909090909091,-161.0909090909091,0.0
2023-04-16 08:50:35:682316,-24.65909090909091,3.022727272727273,1057.3863636363635,-420.86776859504135,1870.909090909091,542.5,-160.9318181818182,-160.9318181818182,-160.9318181818182,0.0
2023-04-16 08:50:35:692656,-27.181818181818183,4.340909090909091,1052.2272727272727,-405.754132231405,1969.5454545454545,531.3636363636364,-160.9318181818182,-160.9318181818182,-160.9318181818182,0.0
2023-04-16 08:50:35:706855,-29.5,7.068181818181818,1045.6818181818182,-385.32541322314046,2022.0454545454545,507.5,-161.0,-161.0,-161.0,0.0
2023-04-16 08:50:35:722530,-32.47727272727273,9.590909090909092,1040.5,-360.44938016528926,2061.818181818182,480.45454545454544,-160.86363636363637,-160.86363636363637,-160.86363636363637,0.0
2023-04-16 08:50:35:732722,-37.0,12.363636363636363,1035.7045454545455,-332.7892561983471,2069.7727272727275,451.8181818181818,-161.04545454545453,-161.04545454545453,-161.04545454545453,0.0
2023-04-16 08:50:35:746868,-40.5,14.272727272727272,1031.5454545454545,-303.5020661157025,2049.090909090909,421.59090909090907,-161.38636363636363,-161.38636363636363,-161.38636363636363,0.0
2023-04-16 08:50:35:757356,-44.97727272727273,17.272727272727273,1027.6818181818182,-273.1663223140496,2009.3181818181815,396.1363636363636,-161.54545454545453,-161.54545454545453,-161.54545454545453,0.0
2023-04-16 08:50:35:772705,-48.40909090909091,19.59090909090909,1025.409090909091,-243.8429752066116,1918.636363636364,375.45454545454544,-161.88636363636363,-161.88636363636363,-161.88636363636363,0.0
2023-04-16 08:50:35:786822,-51.90909090909091,20.40909090909091,1022.5,-216.76136363636363,1824.7727272727277,359.54545454545456,-162.04545454545453,-162.04545454545453,-162.04545454545453,0.0
2023-04-16 08:50:35:797371,-54.11363636363637,19.75,1019.3409090909092,-192.5723140495868,1715.0,346.8181818181818,-162.25,-162.25,-162.25,0.0
2023-04-16 08:50:35:812713,-56.22727272727273,18.09090909090909,1015.931818181818,-171.16735537190084,1606.8181818181818,338.8636363636364,-162.38636363636363,-162.38636363636363,-162.38636363636363,0.0
2023-04-16 08:50:35:821940,-57.18181818181818,16.181818181818183,1013.4545454545456,-152.11260330578511,1466.8181818181818,338.8636363636364,-162.5681818181818,-162.5681818181818,-162.5681818181818,0.0
2023-04-16 08:50:35:837287,-59.25,13.090909090909092,1010.2954545454544,-134.97417355371903,1345.909090909091,340.45454545454544,-162.70454545454547,-162.70454545454547,-162.70454545454547,0.0
2023-04-16 08:50:35:852925,-61.88636363636363,9.704545454545457,1006.931818181818,-118.95661157024792,1204.3181818181818,345.22727272727275,-162.75,-162.75,-162.75,0.0
2023-04-16 08:50:35:862180,-62.56818181818182,7.977272727272727,1006.1363636363636,-103.1559917355372,1034.090909090909,356.3636363636364,-162.95454545454547,-162.95454545454547,-162.95454545454547,0.0
2023-04-16 08:50:35:877473,-64.04545454545455,7.136363636363637,1005.431818181818,-87.53615702479338,871.8181818181819,373.8636363636364,-162.95454545454547,-162.95454545454547,-162.95454545454547,0.0
2023-04-16 08:50:35:887876,-63.5,6.5,1004.9090909090908,-72.4948347107438,690.4545454545455,399.3181818181818,-163.1590909090909,-163.1590909090909,-163.1590909090909,0.0
2023-04-16 08:50:35:902497,-61.63636363636363,6.0,1005.6136363636364,-58.28512396694215,513.8636363636364,423.1818181818182,-163.02272727272728,-163.02272727272728,-163.02272727272728,0.0
2023-04-16 08:50:35:917490,-60.25,4.954545454545454,1005.931818181818,-45.6301652892562,356.3636363636364,450.2272727272728,-163.29545454545453,-163.29545454545453,-163.29545454545453,0.0
2023-04-16 08:50:35:927872,-58.18181818181818,4.568181818181818,1007.1136363636364,-35.10847107438016,203.63636363636363,488.4090909090909,-163.22727272727272,-163.22727272727272,-163.22727272727272,0.0
2023-04-16 08:50:35:942125,-56.77272727272727,5.795454545454546,1007.7727272727273,-26.72004132231405,74.77272727272727,523.4090909090909,-163.02272727272728,-163.02272727272728,-163.02272727272728,0.0
2023-04-16 08:50:35:952423,-55.95454545454545,6.318181818181818,1008.9545454545456,-20.392561983471072,-38.18181818181818,550.4545454545455,-163.11363636363637,-163.11363636363637,-163.11363636363637,0.0
2023-04-16 08:50:35:967992,-54.06818181818182,7.136363636363637,1010.681818181818,-16.089876033057852,-151.13636363636363,574.3181818181819,-163.25,-163.25,-163.25,0.0
2023-04-16 08:50:35:982161,-52.68181818181818,8.75,1013.7954545454544,-13.956611570247937,-252.95454545454547,591.8181818181819,-163.47727272727272,-163.47727272727272,-163.47727272727272,0.0
2023-04-16 08:50:35:992414,-50.61363636363637,9.068181818181818,1016.75,-13.486570247933884,-345.22727272727275,604.5454545454545,-163.52272727272728,-163.52272727272728,-163.52272727272728,0.0
2023-04-16 08:50:36:007992,-48.75,8.977272727272727,1019.4545454545456,-14.354338842975205,-416.8181818181818,610.9090909090909,-163.75,-163.75,-163.75,0.0
2023-04-16 08:50:36:017086,-46.90909090909091,9.636363636363637,1022.75,-15.800619834710744,-470.9090909090909,618.8636363636364,-163.79545454545453,-163.79545454545453,-163.79545454545453,0.0
2023-04-16 08:50:36:032695,-43.72727272727273,10.295454545454543,1025.5454545454545,-17.825413223140494,-509.09090909090907,620.4545454545455,-163.9318181818182,-163.9318181818182,-163.9318181818182,0.0
2023-04-16 08:50:36:048100,-41.27272727272727,8.704545454545455,1026.7727272727273,-20.21177685950413,-505.9090909090909,620.4545454545455,-163.79545454545453,-163.79545454545453,-163.79545454545453,0.0
2023-04-16 08:50:36:057216,-39.70454545454545,8.75,1028.340909090909,-22.20041322314049,-504.3181818181818,623.6363636363636,-163.8181818181818,-163.8181818181818,-163.8181818181818,0.0
2023-04-16 08:50:36:072767,-38.86363636363637,8.340909090909092,1028.1136363636365,-24.044421487603305,-480.45454545454544,623.6363636363636,-163.88636363636363,-163.88636363636363,-163.88636363636363,0.0
2023-04-16 08:50:36:082962,-38.13636363636363,7.818181818181818,1027.7954545454545,-25.671487603305785,-461.3636363636364,628.4090909090909,-163.77272727272728,-163.77272727272728,-163.77272727272728,0.0
2023-04-16 08:50:36:097205,-37.54545454545455,6.863636363636363,1027.7272727272727,-27.00929752066116,-448.6363636363636,634.7727272727273,-163.77272727272728,-163.77272727272728,-163.77272727272728,0.0
2023-04-16 08:50:36:112783,-37.34090909090909,6.181818181818182,1028.5454545454545,-27.91322314049587,-432.7272727272728,642.7272727272727,-163.9090909090909,-163.9090909090909,-163.9090909090909,0.0
2023-04-16 08:50:36:122967,-35.77272727272727,5.840909090909091,1029.2045454545455,-28.27479338842975,-420.0,650.6818181818181,-163.5909090909091,-163.5909090909091,-163.5909090909091,0.0
2023-04-16 08:50:36:137230,-34.63636363636363,3.840909090909091,1029.340909090909,-28.52789256198347,-394.54545454545456,660.2272727272727,-163.8409090909091,-163.8409090909091,-163.8409090909091,0.0
2023-04-16 08:50:36:147955,-34.47727272727273,3.772727272727273,1026.590909090909,-28.166322314049584,-364.3181818181818,671.3636363636364,-163.9090909090909,-163.9090909090909,-163.9090909090909,0.0
2023-04-16 08:50:36:163163,-34.27272727272727,3.8181818181818175,1023.3636363636364,-26.75619834710744,-350.0,680.9090909090909,-163.6818181818182,-163.6818181818182,-163.6818181818182,0.0
2023-04-16 08:50:36:177245,-35.38636363636363,3.477272727272727,1018.0909090909092,-24.297520661157023,-345.22727272727275,687.2727272727273,-163.6818181818182,-163.6818181818182,-163.6818181818182,0.0
2023-04-16 08:50:36:187604,-37.09090909090909,4.5,1013.431818181818,-20.50103305785124,-354.77272727272725,693.6363636363636,-163.52272727272728,-163.52272727272728,-163.52272727272728,0.0
2023-04-16 08:50:36:202890,-39.38636363636363,5.2727272727272725,1009.3863636363636,-15.83677685950413,-378.6363636363636,696.8181818181819,-163.52272727272728,-163.52272727272728,-163.52272727272728,0.0
2023-04-16 08:50:36:212359,-40.40909090909091,3.477272727272727,1009.3863636363636,-10.015495867768594,-442.27272727272725,704.7727272727273,-163.45454545454547,-163.45454545454547,-163.45454545454547,0.0
2023-04-16 08:50:36:227625,-39.86363636363637,2.227272727272727,1010.6590909090908,-3.181818181818181,-497.95454545454544,714.3181818181819,-163.6590909090909,-163.6590909090909,-163.6590909090909,0.0
2023-04-16 08:50:36:243282,-38.38636363636363,-0.0909090909090909,1014.6590909090908,3.977272727272728,-555.2272727272727,727.0454545454545,-164.0,-164.0,-164.0,0.0
2023-04-16 08:50:36:252313,-37.45454545454545,-3.0681818181818183,1019.2045454545456,11.244834710743802,-591.8181818181819,741.3636363636364,-164.0909090909091,-164.0909090909091,-164.0909090909091,0.0
2023-04-16 08:50:36:267617,-35.15909090909091,-5.340909090909091,1024.8636363636365,18.65702479338843,-628.4090909090909,755.6818181818181,-164.02272727272728,-164.02272727272728,-164.02272727272728,0.0
2023-04-16 08:50:36:277996,-34.47727272727273,-7.977272727272727,1029.6363636363635,26.466942148760328,-623.6363636363636,774.7727272727273,-164.1590909090909,-164.1590909090909,-164.1590909090909,0.0
2023-04-16 08:50:36:292261,-33.97727272727273,-8.681818181818182,1033.840909090909,35.03615702479339,-617.2727272727273,798.6363636363636,-164.4318181818182,-164.4318181818182,-164.4318181818182,0.0
2023-04-16 08:50:36:307630,-31.863636363636363,-8.318181818181818,1037.8636363636365,44.25619834710744,-614.0909090909091,824.0909090909091,-164.45454545454547,-164.45454545454547,-164.45454545454547,0.0
2023-04-16 08:50:36:317993,-31.181818181818183,-6.977272727272728,1041.3181818181818,54.88636363636363,-593.4090909090909,849.5454545454545,-164.27272727272728,-164.27272727272728,-164.27272727272728,0.0
2023-04-16 08:50:36:332652,-30.045454545454547,-4.25,1044.7272727272727,67.25206611570248,-575.9090909090909,870.2272727272727,-164.4090909090909,-164.4090909090909,-164.4090909090909,0.0
2023-04-16 08:50:36:342572,-28.818181818181817,-1.7954545454545454,1046.2045454545455,82.07644628099173,-540.9090909090909,887.7272727272727,-164.13636363636363,-164.13636363636363,-164.13636363636363,0.0
2023-04-16 08:50:36:358155,-26.84090909090909,1.2954545454545454,1047.159090909091,99.93801652892562,-505.9090909090909,900.4545454545455,-164.3409090909091,-164.3409090909091,-164.3409090909091,0.0
2023-04-16 08:50:36:372275,-27.818181818181817,6.568181818181818,1049.340909090909,120.8729338842975,-462.95454545454544,905.2272727272727,-164.54545454545453,-164.54545454545453,-164.54545454545453,0.0
2023-04-16 08:50:36:386965,-25.772727272727277,14.636363636363637,1053.3863636363635,144.7004132231405,-435.9090909090909,902.0454545454544,-164.54545454545453,-164.54545454545453,-164.54545454545453,0.0
2023-04-16 08:50:36:396855,-24.931818181818183,18.818181818181817,1057.2954545454545,170.15495867768595,-375.45454545454544,882.9545454545455,-164.61363636363637,-164.61363636363637,-164.61363636363637,0.0
2023-04-16 08:50:36:407416,-24.90909090909091,24.272727272727277,1061.0681818181818,196.5134297520661,-300.6818181818182,859.0909090909091,-164.5909090909091,-164.5909090909091,-164.5909090909091,0.0
2023-04-16 08:50:36:422879,-24.068181818181817,29.863636363636363,1064.2727272727273,223.0165289256198,-233.8636363636364,830.4545454545455,-164.5909090909091,-164.5909090909091,-164.5909090909091,0.0
2023-04-16 08:50:36:436979,-25.727272727272727,31.88636363636364,1064.7727272727273,248.3626033057851,-122.5,798.6363636363636,-164.9318181818182,-164.9318181818182,-164.9318181818182,0.0
2023-04-16 08:50:36:447407,-25.295454545454547,33.79545454545455,1065.3181818181818,272.4070247933884,-41.36363636363637,760.4545454545455,-165.0,-165.0,-165.0,0.0
2023-04-16 08:50:36:462906,-24.88636363636364,34.72727272727273,1064.909090909091,295.1136363636364,33.40909090909091,736.5909090909091,-165.0909090909091,-165.0909090909091,-165.0909090909091,0.0
2023-04-16 08:50:36:471826,-26.15909090909091,35.72727272727273,1063.8636363636365,316.120867768595,120.9090909090909,712.7272727272727,-165.36363636363637,-165.36363636363637,-165.36363636363637,0.0
2023-04-16 08:50:36:487368,-25.204545454545453,35.0,1062.7954545454545,335.6456611570248,184.54545454545453,692.0454545454545,-165.3181818181818,-165.3181818181818,-165.3181818181818,0.0
2023-04-16 08:50:36:502772,-24.954545454545453,34.45454545454545,1061.590909090909,354.0495867768595,251.3636363636364,674.5454545454545,-165.45454545454547,-165.45454545454547,-165.45454545454547,0.0
2023-04-16 08:50:36:511858,-26.0,33.20454545454545,1060.2272727272727,371.2603305785124,329.3181818181818,658.6363636363636,-165.63636363636363,-165.63636363636363,-165.63636363636363,0.0
2023-04-16 08:50:36:527381,-25.90909090909091,31.431818181818183,1057.909090909091,387.1694214876033,378.6363636363636,658.6363636363636,-165.6818181818182,-165.6818181818182,-165.6818181818182,0.0
2023-04-16 08:50:36:538002,-27.295454545454547,30.272727272727277,1055.659090909091,401.9214876033058,434.3181818181818,660.2272727272727,-165.63636363636363,-165.63636363636363,-165.63636363636363,0.0
2023-04-16 08:50:36:552282,-28.068181818181817,28.477272727272727,1053.1363636363635,415.55268595041326,478.8636363636364,666.5909090909091,-165.47727272727272,-165.47727272727272,-165.47727272727272,0.0
2023-04-16 08:50:36:567523,-27.772727272727277,26.613636363636363,1050.840909090909,427.88223140495865,510.6818181818182,674.5454545454545,-165.36363636363637,-165.36363636363637,-165.36363636363637,0.0
2023-04-16 08:50:36:578262,-28.954545454545453,25.454545454545453,1048.7272727272727,438.76549586776855,558.4090909090909,684.0909090909091,-165.20454545454547,-165.20454545454547,-165.20454545454547,0.0
2023-04-16 08:50:36:592182,-28.772727272727277,25.13636363636364,1045.7954545454545,448.0578512396695,574.3181818181819,693.6363636363636,-164.95454545454547,-164.95454545454547,-164.95454545454547,0.0
2023-04-16 08:50:36:602455,-28.704545454545453,23.88636363636364,1042.2272727272727,455.8316115702479,601.3636363636364,706.3636363636364,-164.6818181818182,-164.6818181818182,-164.6818181818182,0.0
2023-04-16 08:50:36:617928,-30.272727272727277,24.34090909090909,1039.3181818181818,462.2314049586777,618.8636363636364,709.5454545454545,-164.5909090909091,-164.5909090909091,-164.5909090909091,0.0
2023-04-16 08:50:36:632116,-30.65909090909091,24.568181818181817,1035.7045454545455,467.1849173553719,623.6363636363636,711.1363636363636,-164.38636363636363,-164.38636363636363,-164.38636363636363,0.0
2023-04-16 08:50:36:642603,-30.772727272727277,23.954545454545453,1032.8181818181818,470.69214876033055,617.2727272727273,711.1363636363636,-164.3409090909091,-164.3409090909091,-164.3409090909091,0.0
2023-04-16 08:50:36:657918,-32.02272727272727,24.227272727272727,1030.25,473.1146694214876,607.7272727272727,703.1818181818181,-164.45454545454547,-164.45454545454547,-164.45454545454547,0.0
2023-04-16 08:50:36:667118,-32.02272727272727,24.0,1028.409090909091,474.7417355371901,582.2727272727273,692.0454545454545,-164.38636363636363,-164.38636363636363,-164.38636363636363,0.0
2023-04-16 08:50:36:682679,-32.65909090909091,23.772727272727277,1027.0681818181818,475.42871900826447,567.9545454545455,676.1363636363636,-164.11363636363637,-164.11363636363637,-164.11363636363637,0.0
2023-04-16 08:50:36:697952,-32.40909090909091,22.954545454545453,1026.8181818181818,475.3564049586777,539.3181818181819,660.2272727272727,-164.04545454545453,-164.04545454545453,-164.04545454545453,0.0
2023-04-16 08:50:36:707131,-33.13636363636363,22.15909090909091,1025.2045454545455,474.8140495867768,520.2272727272727,644.3181818181819,-164.04545454545453,-164.04545454545453,-164.04545454545453,0.0
2023-04-16 08:50:36:722682,-33.40909090909091,20.63636363636364,1024.409090909091,473.47623966942143,496.3636363636364,625.2272727272727,-163.97727272727272,-163.97727272727272,-163.97727272727272,0.0
2023-04-16 08:50:36:732800,-33.88636363636363,18.977272727272727,1023.7272727272727,471.27066115702473,470.9090909090909,609.3181818181819,-164.38636363636363,-164.38636363636363,-164.38636363636363,0.0
2023-04-16 08:50:36:747245,-34.5,18.431818181818183,1022.7954545454544,468.08884297520666,450.2272727272728,593.4090909090909,-164.38636363636363,-164.38636363636363,-164.38636363636363,0.0
2023-04-16 08:50:36:762880,-34.09090909090909,16.5,1022.068181818182,463.930785123967,408.8636363636364,577.5,-164.54545454545453,-164.54545454545453,-164.54545454545453,0.0
2023-04-16 08:50:36:772867,-34.11363636363637,15.204545454545457,1021.4772727272727,458.86880165289256,370.6818181818182,564.7727272727273,-164.20454545454547,-164.20454545454547,-164.20454545454547,0.0
2023-04-16 08:50:36:787268,-33.65909090909091,14.863636363636363,1023.0,452.396694214876,335.6818181818182,553.6363636363636,-164.25,-164.25,-164.25,0.0
2023-04-16 08:50:36:797573,-33.81818181818182,13.75,1023.75,444.44214876033055,311.8181818181818,542.5,-164.04545454545453,-164.04545454545453,-164.04545454545453,0.0
2023-04-16 08:50:36:812878,-32.56818181818182,12.409090909090908,1024.8863636363635,434.6435950413223,281.59090909090907,531.3636363636364,-163.75,-163.75,-163.75,0.0
2023-04-16 08:50:36:827279,-31.34090909090909,12.181818181818182,1027.2954545454545,423.6157024793389,251.3636363636364,525.0,-163.72727272727272,-163.72727272727272,-163.72727272727272,0.0
2023-04-16 08:50:36:837511,-31.295454545454547,11.522727272727272,1027.75,410.92458677685954,246.5909090909091,520.2272727272727,-163.52272727272728,-163.52272727272728,-163.52272727272728,0.0
2023-04-16 08:50:36:853117,-30.727272727272727,11.386363636363637,1028.909090909091,396.4979338842976,225.9090909090909,520.2272727272727,-163.13636363636363,-163.13636363636363,-163.13636363636363,0.0
2023-04-16 08:50:36:862109,-29.65909090909091,11.886363636363637,1030.3636363636365,380.48037190082647,206.8181818181818,517.0454545454545,-163.0,-163.0,-163.0,0.0
2023-04-16 08:50:36:877548,-29.931818181818183,11.886363636363637,1030.8863636363635,363.84814049586777,202.04545454545453,513.8636363636364,-162.77272727272728,-162.77272727272728,-162.77272727272728,0.0
2023-04-16 08:50:36:893095,-29.613636363636363,13.136363636363637,1031.6363636363635,346.2396694214876,187.72727272727272,512.2727272727273,-162.70454545454547,-162.70454545454547,-162.70454545454547,0.0
2023-04-16 08:50:36:902094,-29.34090909090909,11.772727272727272,1032.0454545454545,327.1849173553719,194.0909090909091,504.3181818181818,-162.54545454545453,-162.54545454545453,-162.54545454545453,0.0
2023-04-16 08:50:36:917546,-28.88636363636364,12.068181818181818,1032.840909090909,307.2623966942149,195.6818181818182,501.1363636363636,-162.72727272727272,-162.72727272727272,-162.72727272727272,0.0
2023-04-16 08:50:36:928068,-28.13636363636364,13.0,1035.8181818181818,286.3636363636364,186.13636363636363,497.95454545454544,-162.5681818181818,-162.5681818181818,-162.5681818181818,0.0
2023-04-16 08:50:36:942414,-26.25,12.659090909090908,1037.7954545454545,264.34400826446284,213.1818181818182,485.2272727272728,-162.45454545454547,-162.45454545454547,-162.45454545454547,0.0
2023-04-16 08:50:36:957525,-26.795454545454547,10.931818181818182,1037.340909090909,241.42045454545453,241.8181818181818,477.27272727272725,-162.27272727272728,-162.27272727272728,-162.27272727272728,0.0
2023-04-16 08:50:36:968195,-26.59090909090909,11.340909090909092,1036.3863636363635,218.38842975206612,260.90909090909093,467.7272727272728,-162.4318181818182,-162.4318181818182,-162.4318181818182,0.0
2023-04-16 08:50:36:982160,-25.522727272727277,10.818181818181818,1034.6818181818182,195.7179752066116,264.09090909090907,458.1818181818182,-162.5909090909091,-162.5909090909091,-162.5909090909091,0.0
2023-04-16 08:50:36:992513,-25.477272727272727,10.818181818181818,1032.6363636363635,173.7706611570248,268.8636363636364,451.8181818181818,-162.75,-162.75,-162.75,0.0
2023-04-16 08:50:37:007885,-24.045454545454547,11.272727272727272,1031.5681818181818,153.52272727272728,235.45454545454547,442.27272727272725,-162.54545454545453,-162.54545454545453,-162.54545454545453,0.0
2023-04-16 08:50:37:022207,-23.38636363636364,10.863636363636363,1030.7954545454545,134.54028925619835,219.54545454545453,442.27272727272725,-162.47727272727272,-162.47727272727272,-162.47727272727272,0.0
2023-04-16 08:50:37:032584,-23.931818181818183,12.136363636363637,1031.0227272727273,116.57024793388427,217.95454545454547,432.7272727272728,-162.45454545454547,-162.45454545454547,-162.45454545454547,0.0
2023-04-16 08:50:37:047889,-23.38636363636364,12.090909090909092,1031.909090909091,100.33574380165288,192.5,426.3636363636364,-162.11363636363637,-162.11363636363637,-162.11363636363637,0.0
2023-04-16 08:50:37:057147,-23.522727272727277,13.590909090909092,1033.659090909091,85.87293388429752,181.3636363636364,420.0,-161.75,-161.75,-161.75,0.0
2023-04-16 08:50:37:072701,-24.38636363636364,14.636363636363637,1033.9772727272727,72.60330578512396,182.95454545454547,410.45454545454544,-161.5681818181818,-161.5681818181818,-161.5681818181818,0.0
2023-04-16 08:50:37:087874,-23.431818181818183,15.818181818181818,1035.3636363636365,60.88842975206612,152.72727272727272,402.5,-161.3181818181818,-161.3181818181818,-161.3181818181818,0.0
2023-04-16 08:50:37:097117,-22.977272727272727,16.295454545454547,1036.909090909091,50.69214876033058,136.8181818181818,388.1818181818182,-161.25,-161.25,-161.25,0.0
2023-04-16 08:50:37:113169,-22.15909090909091,15.863636363636363,1037.5227272727273,41.83367768595041,124.0909090909091,377.04545454545456,-160.97727272727272,-160.97727272727272,-160.97727272727272,0.0
2023-04-16 08:50:37:121748,-22.13636363636364,16.295454545454547,1038.1818181818182,34.31301652892562,116.13636363636364,362.7272727272728,-160.70454545454547,-160.70454545454547,-160.70454545454547,0.0
2023-04-16 08:50:37:137793,-22.113636363636363,16.5,1038.590909090909,28.094008264462808,112.95454545454544,348.40909090909093,-160.47727272727272,-160.47727272727272,-160.47727272727272,0.0
2023-04-16 08:50:37:152847,-21.068181818181817,16.022727272727273,1038.2727272727273,23.03202479338843,97.04545454545456,337.27272727272725,-160.27272727272728,-160.27272727272728,-160.27272727272728,0.0
2023-04-16 08:50:37:161736,-21.272727272727277,15.0,1037.5454545454545,18.65702479338843,101.8181818181818,319.77272727272725,-160.3181818181818,-160.3181818181818,-160.3181818181818,0.0
2023-04-16 08:50:37:177465,-21.65909090909091,14.795454545454543,1037.9772727272727,15.43904958677686,84.31818181818181,303.8636363636364,-160.3181818181818,-160.3181818181818,-160.3181818181818,0.0
2023-04-16 08:50:37:187802,-20.818181818181817,14.409090909090908,1038.2045454545455,13.016528925619836,66.81818181818181,291.1363636363636,-160.25,-160.25,-160.25,0.0
2023-04-16 08:50:37:201852,-20.977272727272727,13.227272727272728,1037.5681818181818,11.027892561983473,68.4090909090909,278.40909090909093,-160.02272727272728,-160.02272727272728,-160.02272727272728,0.0
2023-04-16 08:50:37:217353,-20.931818181818183,12.954545454545457,1037.2727272727273,9.90702479338843,54.09090909090909,268.8636363636364,-159.72727272727272,-159.72727272727272,-159.72727272727272,0.0
2023-04-16 08:50:37:228147,-20.40909090909091,11.431818181818182,1036.1818181818182,9.545454545454543,41.36363636363637,260.90909090909093,-159.27272727272728,-159.27272727272728,-159.27272727272728,0.0
2023-04-16 08:50:37:241888,-21.65909090909091,11.136363636363637,1034.590909090909,9.943181818181818,38.18181818181818,254.54545454545453,-159.0909090909091,-159.0909090909091,-159.0909090909091,0.0
2023-04-16 08:50:37:252257,-20.863636363636363,10.068181818181818,1033.4318181818182,11.136363636363637,11.136363636363637,248.1818181818182,-159.0681818181818,-159.0681818181818,-159.0681818181818,0.0
2023-04-16 08:50:37:268011,-20.90909090909091,10.318181818181818,1032.409090909091,12.727272727272728,0.0,241.8181818181818,-158.97727272727272,-158.97727272727272,-158.97727272727272,0.0
2023-04-16 08:50:37:281774,-20.65909090909091,10.704545454545457,1032.25,14.715909090909092,-20.681818181818183,232.27272727272728,-158.5681818181818,-158.5681818181818,-158.5681818181818,0.0
2023-04-16 08:50:37:292560,-19.84090909090909,10.909090909090908,1032.6136363636365,17.283057851239672,-50.90909090909091,224.3181818181818,-158.5,-158.5,-158.5,0.0
2023-04-16 08:50:37:308136,-18.931818181818183,11.613636363636363,1033.0454545454545,20.17561983471074,-70.0,213.1818181818182,-158.29545454545453,-158.29545454545453,-158.29545454545453,0.0
2023-04-16 08:50:37:316879,-18.227272727272727,11.477272727272728,1034.3636363636365,23.21280991735537,-92.27272727272728,203.63636363636363,-157.9318181818182,-157.9318181818182,-157.9318181818182,0.0
2023-04-16 08:50:37:332785,-16.59090909090909,11.818181818181818,1036.1818181818182,26.213842975206614,-111.36363636363636,195.6818181818182,-157.5681818181818,-157.5681818181818,-157.5681818181818,0.0
2023-04-16 08:50:37:347719,-15.818181818181818,11.340909090909092,1037.5,29.14256198347108,-106.5909090909091,186.13636363636363,-157.45454545454547,-157.45454545454547,-157.45454545454547,0.0
2023-04-16 08:50:37:357180,-14.659090909090908,11.022727272727272,1036.8636363636365,32.360537190082646,-95.45454545454544,176.5909090909091,-157.38636363636363,-157.38636363636363,-157.38636363636363,0.0
2023-04-16 08:50:37:372446,-13.340909090909092,11.818181818181818,1037.3636363636365,35.90392561983471,-100.22727272727272,167.04545454545453,-157.3181818181818,-157.3181818181818,-157.3181818181818,0.0
2023-04-16 08:50:37:382653,-13.295454545454543,13.409090909090908,1037.1363636363635,39.48347107438016,-85.9090909090909,155.9090909090909,-156.97727272727272,-156.97727272727272,-156.97727272727272,0.0
2023-04-16 08:50:37:397098,-13.318181818181818,13.181818181818182,1036.090909090909,42.26756198347108,-74.77272727272727,141.5909090909091,-156.97727272727272,-156.97727272727272,-156.97727272727272,0.0
2023-04-16 08:50:37:412355,-13.318181818181818,14.454545454545457,1035.5,44.473140495867774,-65.22727272727273,130.45454545454547,-157.0909090909091,-157.0909090909091,-157.0909090909091,0.0
2023-04-16 08:50:37:422654,-13.113636363636363,15.068181818181818,1035.3181818181818,46.02789256198347,-60.45454545454545,114.54545454545456,-157.0909090909091,-157.0909090909091,-157.0909090909091,0.0
2023-04-16 08:50:37:436928,-12.772727272727272,14.545454545454543,1034.9318181818182,46.64256198347107,-52.5,101.8181818181818,-157.02272727272728,-157.02272727272728,-157.02272727272728,0.0
2023-04-16 08:50:37:447467,-12.022727272727272,15.136363636363637,1034.9772727272727,46.20867768595041,-44.54545454545455,89.0909090909091,-156.95454545454547,-156.95454545454547,-156.95454545454547,0.0
2023-04-16 08:50:37:462731,-11.363636363636363,14.022727272727272,1034.75,44.6900826446281,-28.63636363636364,74.77272727272727,-156.79545454545453,-156.79545454545453,-156.79545454545453,0.0
2023-04-16 08:50:37:476809,-10.772727272727272,14.386363636363637,1035.75,43.1353305785124,-23.863636363636363,65.22727272727273,-156.79545454545453,-156.79545454545453,-156.79545454545453,0.0
2023-04-16 08:50:37:487295,-10.227272727272728,14.0,1036.0,41.110537190082646,-4.7727272727272725,49.31818181818182,-156.6590909090909,-156.6590909090909,-156.6590909090909,0.0
2023-04-16 08:50:37:502820,-10.340909090909092,13.409090909090908,1034.8863636363635,38.61570247933884,30.227272727272727,31.818181818181817,-156.5909090909091,-156.5909090909091,-156.5909090909091,0.0
2023-04-16 08:50:37:511752,-9.840909090909092,13.0,1035.4772727272727,36.37396694214876,20.681818181818183,22.272727272727277,-156.36363636363637,-156.36363636363637,-156.36363636363637,0.0
2023-04-16 08:50:37:527429,-9.272727272727272,11.931818181818182,1035.6136363636365,34.02376033057852,31.818181818181817,9.545454545454543,-156.4090909090909,-156.4090909090909,-156.4090909090909,0.0
2023-04-16 08:50:37:542810,-9.704545454545457,10.318181818181818,1033.9772727272727,31.60123966942149,41.36363636363637,0.0,-156.11363636363637,-156.11363636363637,-156.11363636363637,0.0
2023-04-16 08:50:37:551782,-9.363636363636363,9.772727272727272,1034.090909090909,29.323347107438018,33.40909090909091,-4.7727272727272725,-155.70454545454547,-155.70454545454547,-155.70454545454547,0.0
2023-04-16 08:50:37:567538,-9.227272727272728,9.022727272727272,1035.0681818181818,26.72004132231405,41.36363636363637,-11.136363636363637,-155.47727272727272,-155.47727272727272,-155.47727272727272,0.0
2023-04-16 08:50:37:577750,-9.386363636363637,8.704545454545455,1035.0,23.646694214876035,52.5,-12.727272727272728,-155.1590909090909,-155.1590909090909,-155.1590909090909,0.0
2023-04-16 08:50:37:591846,-9.25,8.840909090909092,1034.6136363636365,20.862603305785125,55.68181818181818,-17.5,-154.86363636363637,-154.86363636363637,-154.86363636363637,0.0
2023-04-16 08:50:37:607497,-9.363636363636363,7.113636363636363,1034.5227272727273,18.620867768595044,66.81818181818181,-25.454545454545453,-154.52272727272728,-154.52272727272728,-154.52272727272728,0.0
2023-04-16 08:50:37:617690,-9.25,7.454545454545454,1034.6136363636365,16.921487603305785,71.5909090909091,-31.818181818181817,-154.4318181818182,-154.4318181818182,-154.4318181818182,0.0
2023-04-16 08:50:37:631856,-8.954545454545455,8.045454545454545,1034.6818181818182,15.65599173553719,73.18181818181819,-44.54545454545455,-154.36363636363637,-154.36363636363637,-154.36363636363637,0.0
2023-04-16 08:50:37:647167,-8.772727272727273,7.931818181818182,1034.590909090909,15.149793388429751,79.54545454545455,-55.68181818181818,-154.0681818181818,-154.0681818181818,-154.0681818181818,0.0
2023-04-16 08:50:37:657820,-9.886363636363637,7.522727272727272,1033.4318181818182,14.932851239669423,100.22727272727272,-66.81818181818181,-153.9090909090909,-153.9090909090909,-153.9090909090909,0.0
2023-04-16 08:50:37:672057,-10.136363636363637,8.295454545454545,1033.2727272727273,15.18595041322314,106.5909090909091,-77.95454545454545,-153.63636363636363,-153.63636363636363,-153.63636363636363,0.0
2023-04-16 08:50:37:682415,-10.204545454545457,10.045454545454543,1033.409090909091,16.053719008264462,108.1818181818182,-93.86363636363636,-153.5,-153.5,-153.5,0.0
2023-04-16 08:50:37:697844,-9.75,9.204545454545457,1033.3863636363635,17.210743801652892,112.95454545454544,-109.77272727272728,-153.5681818181818,-153.5681818181818,-153.5681818181818,0.0
2023-04-16 08:50:37:707066,-9.545454545454543,10.227272727272728,1032.9545454545455,18.693181818181817,114.54545454545456,-124.0909090909091,-153.22727272727272,-153.22727272727272,-153.22727272727272,0.0
2023-04-16 08:50:37:722498,-8.590909090909092,11.318181818181818,1033.5,20.537190082644628,120.9090909090909,-144.77272727272728,-152.95454545454547,-152.95454545454547,-152.95454545454547,0.0
2023-04-16 08:50:37:737880,-8.431818181818182,10.5,1034.25,22.995867768595044,132.04545454545453,-163.86363636363637,-152.75,-152.75,-152.75,0.0
2023-04-16 08:50:37:747099,-8.477272727272727,11.227272727272728,1035.0227272727273,25.74380165289256,146.36363636363637,-181.3636363636364,-152.45454545454547,-152.45454545454547,-152.45454545454547,0.0
2023-04-16 08:50:37:762484,-7.181818181818182,11.5,1034.7954545454545,28.81714876033057,160.6818181818182,-197.27272727272728,-152.25,-152.25,-152.25,0.0
2023-04-16 08:50:37:772758,-7.454545454545454,11.431818181818182,1035.7045454545455,32.360537190082646,168.63636363636363,-213.1818181818182,-152.47727272727272,-152.47727272727272,-152.47727272727272,0.0
2023-04-16 08:50:37:787189,-7.659090909090909,11.363636363636363,1035.25,35.90392561983471,195.6818181818182,-227.5,-152.29545454545453,-152.29545454545453,-152.29545454545453,0.0
2023-04-16 08:50:37:802478,-6.340909090909091,12.409090909090908,1036.5454545454545,39.48347107438016,192.5,-238.63636363636363,-152.3409090909091,-152.3409090909091,-152.3409090909091,0.0
2023-04-16 08:50:37:812792,-5.136363636363637,12.613636363636363,1037.0681818181818,42.55681818181818,216.3636363636364,-252.95454545454547,-152.11363636363637,-152.11363636363637,-152.11363636363637,0.0
