Timestamp,Acc_x,Acc_Y,Acc_Z,Gyro_X,Gyro_Y,Gyro_Z,Magn_X,Magn_Y,Magn_Z,Pressure,Temprature,Humidity
00:10:13.68,-42,7,1024,1540,-1680,-490,30,57,-610,987.28,
00:10:13.70,-42,7,1024,1540,-1680,-490,27,58,-624,987.28,
00:10:13.72,-36,8,1025,1470,-1680,-560,22,55,-612,987.28,
00:10:13.74,-37,7,1025,1610,-1680,-630,30,69,-613,987.28,
00:10:13.76,-38,7,1025,1610,-1680,-560,25,58,-607,987.28,
00:10:13.78,-38,7,1025,1540,-1680,-560,34,55,-607,987.28,
00:10:13.80,-40,7,1025,1540,-1680,-490,31,48,-622,987.28,
00:10:13.82,-40,6,1024,1540,-1680,-490,22,55,-604,987.28,
00:10:13.84,-38,7,1025,1540,-1680,-560,34,54,-607,987.28,
00:10:13.86,-37,8,1025,1540,-1610,-490,27,51,-610,987.28,
00:10:13.88,-36,8,1025,1610,-1680,-560,39,63,-615,987.28,
00:10:13.90,-37,7,1026,1470,-1680,-560,33,54,-609,987.29,
00:10:13.92,-39,8,1024,1540,-1680,-490,39,60,-606,987.29,
00:10:13.94,-39,7,1025,1540,-1680,-560,33,58,-610,987.28,
00:10:13.96,-38,7,1025,1540,-1680,-560,28,54,-603,987.28,
00:10:13.98,-37,7,1026,1540,-1680,-490,30,54,-619,987.28,
00:10:14.00,-37,7,1026,1470,-1680,-490,30,58,-612,987.28,
00:10:14.02,-38,7,1024,1540,-1610,-490,37,45,-616,987.27,
00:10:14.04,-39,6,1023,1540,-1680,-560,22,55,-613,987.27,
00:10:14.06,-38,7,1023,1540,-1680,-560,36,51,-615,987.27,
00:10:14.08,-38,7,1024,1610,-1680,-560,33,52,-616,987.27,
00:10:14.10,-37,8,1025,1540,-1680,-560,31,63,-610,987.27,
00:10:14.12,-37,8,1025,1540,-1680,-560,31,61,-616,987.28,
00:10:14.14,-38,7,1026,1540,-1680,-560,30,55,-613,987.28,
00:10:14.16,-39,7,1025,1540,-1680,-560,33,55,-607,987.28,
00:10:14.18,-38,8,1026,1540,-1680,-560,31,51,-609,987.28,
00:10:14.20,-38,7,1027,1540,-1680,-560,33,48,-613,987.27,
00:10:14.22,-37,8,1026,1610,-1680,-490,40,48,-607,987.27,
00:10:14.24,-37,7,1027,1540,-1680,-560,37,52,-604,987.27,
00:10:14.26,-39,6,1026,1540,-1680,-560,24,48,-616,987.27,
00:10:14.28,-40,6,1025,1540,-1680,-490,39,54,-607,987.28,
00:10:14.30,-36,8,1026,1540,-1680,-560,28,55,-616,987.28,
00:10:14.32,-36,7,1026,1540,-1680,-560,31,63,-612,987.28,
00:10:14.34,-38,7,1027,1610,-1680,-560,28,61,-607,987.28,
00:10:14.36,-39,6,1025,1540,-1680,-560,36,46,-618,987.28,
00:10:14.38,-40,6,1024,1540,-1610,-490,27,54,-609,987.28,
00:10:14.40,-41,6,1023,1540,-1680,-560,34,51,-612,987.28,
00:10:14.42,-37,7,1025,1540,-1680,-490,31,49,-615,987.28,
00:10:14.44,-38,7,1025,1540,-1680,-490,31,55,-607,987.29,
00:10:14.46,-39,7,1025,1540,-1680,-560,31,49,-610,987.29,
00:10:14.48,-39,6,1026,1610,-1680,-490,31,57,-609,987.28,
00:10:14.50,-41,8,1024,1540,-1680,-490,33,51,-610,987.28,
00:10:14.52,-42,7,1025,1540,-1680,-490,37,57,-607,987.28,
00:10:14.54,-36,8,1028,1540,-1680,-560,31,48,-612,987.28,
00:10:14.56,-38,6,1026,1540,-1680,-560,33,52,-612,987.28,
00:10:14.58,-40,7,1026,1540,-1680,-560,34,57,-613,987.28,
00:10:14.60,-41,7,1026,1540,-1680,-490,27,55,-610,987.28,
00:10:14.62,-41,6,1026,1540,-1680,-560,27,55,-613,987.28,
00:10:14.64,-41,7,1027,1540,-1680,-560,31,57,-607,987.28,
00:10:14.66,-38,7,1027,1540,-1680,-490,28,48,-609,987.28,
00:10:14.68,-40,7,1026,1540,-1680,-490,33,48,-609,987.28,
00:10:14.70,-41,6,1027,1540,-1680,-560,28,54,-615,987.28,
00:10:14.72,-43,7,1027,1610,-1680,-490,39,52,-619,987.27,
00:10:14.74,-41,7,1026,1540,-1750,-560,39,52,-610,987.27,
00:10:14.76,-40,7,1028,1540,-1750,-560,33,51,-616,987.27,
00:10:14.78,-40,7,1027,1540,-1680,-490,34,55,-609,987.27,
00:10:14.80,-41,7,1028,1540,-1680,-560,30,60,-615,987.27,
00:10:14.82,-42,7,1027,1540,-1680,-490,34,61,-613,987.27,
00:10:14.84,-42,8,1028,1470,-1680,-490,27,51,-606,987.28,
00:10:14.86,-39,8,1028,1470,-1680,-490,36,48,-612,987.28,
00:10:14.88,-41,7,1028,1610,-1750,-490,31,61,-613,987.28,
00:10:14.90,-41,7,1028,1540,-1680,-560,36,48,-610,987.28,
00:10:14.92,-42,8,1027,1540,-1680,-560,25,61,-607,987.27,
00:10:14.94,-41,7,1028,1470,-1680,-490,28,49,-619,987.27,
00:10:14.96,-40,7,1029,1470,-1680,-490,30,49,-609,987.28,
00:10:14.98,-38,8,1029,1610,-1680,-490,36,63,-616,987.28,
00:10:15.00,-43,7,1029,1470,-1680,-490,39,57,-606,987.27,
00:10:15.02,-42,5,1030,1540,-1680,-490,36,52,-609,987.27,
00:10:15.04,-42,7,1028,1540,-1680,-490,33,51,-606,987.28,
00:10:15.06,-36,8,1029,1610,-1750,-490,27,55,-616,987.28,
00:10:15.08,-40,7,1029,1470,-1680,-490,33,57,-613,987.28,
00:10:15.10,-40,7,1031,1610,-1610,-630,34,52,-616,987.28,
00:10:15.12,-41,8,1028,1540,-1680,-560,27,49,-613,987.28,
00:10:15.14,-41,6,1030,1400,-1750,-490,31,49,-615,987.28,
00:10:15.16,-39,8,1029,1610,-1680,-490,28,48,-615,987.28,
00:10:15.18,-37,7,1028,1610,-1680,-490,30,55,-607,987.28,
00:10:15.20,-38,8,1029,1470,-1680,-560,28,58,-618,987.28,
00:10:15.22,-38,8,1028,1540,-1680,-560,28,48,-609,987.28,
00:10:15.24,-41,8,1025,1540,-1680,-490,31,58,-607,987.27,
00:10:15.26,-39,7,1027,1470,-1750,-490,28,55,-613,987.27,
00:10:15.28,-37,8,1026,1680,-1680,-490,39,63,-610,987.28,
00:10:15.30,-37,8,1026,1610,-1680,-560,31,54,-616,987.28,
00:10:15.32,-36,7,1027,1540,-1680,-560,39,49,-613,987.28,
00:10:15.34,-38,7,1027,1540,-1680,-560,33,60,-610,987.28,
00:10:15.36,-40,9,1028,1540,-1680,-560,37,55,-618,987.27,
00:10:15.38,-38,7,1028,1470,-1680,-560,34,63,-604,987.27,
00:10:15.40,-36,8,1029,1610,-1750,-560,24,55,-618,987.27,
00:10:15.42,-37,7,1029,1470,-1680,-560,31,49,-607,987.27,
00:10:15.44,-37,6,1030,1470,-1680,-560,34,52,-612,987.28,
00:10:15.46,-39,6,1027,1540,-1680,-490,27,57,-610,987.28,
00:10:15.48,-38,8,1028,1540,-1680,-560,37,57,-612,987.28,
00:10:15.50,-37,7,1029,1540,-1680,-560,37,51,-612,987.28,
00:10:15.52,-37,8,1028,1610,-1680,-560,31,51,-607,987.28,
00:10:15.54,-38,6,1028,1540,-1680,-560,33,54,-613,987.28,
00:10:15.56,-39,7,1028,1540,-1680,-490,31,49,-607,987.28,
00:10:15.58,-42,7,1027,1540,-1680,-490,34,55,-613,987.28,
00:10:15.60,-37,7,1028,1540,-1680,-560,30,52,-610,987.28,
00:10:15.62,-37,7,1029,1540,-1680,-490,37,60,-616,987.28,
00:10:15.64,-40,7,1028,1540,-1680,-490,34,51,-603,987.28,
00:10:15.66,-40,7,1028,1540,-1680,-560,25,48,-615,987.28,
00:10:15.68,-41,7,1027,1540,-1750,-490,27,48,-607,987.28,
00:10:15.70,-43,7,1027,1540,-1750,-560,25,54,-616,987.28,
00:10:15.72,-38,7,1029,1610,-1680,-560,36,55,-607,987.28,
00:10:15.74,-39,7,1028,1540,-1680,-560,33,55,-609,987.28,
00:10:15.76,-41,7,1028,1540,-1750,-560,34,51,-609,987.28,
00:10:15.78,-42,7,1027,1470,-1680,-490,28,55,-615,987.28,
00:10:15.80,-42,7,1028,1540,-1680,-490,33,49,-615,987.28,
00:10:15.82,-42,8,1028,1610,-1680,-560,34,49,-606,987.28,
00:10:15.84,-40,6,1029,1540,-1680,-560,31,57,-606,987.28,
00:10:15.86,-43,6,1028,1540,-1680,-490,33,45,-609,987.28,
00:10:15.88,-41,7,1028,1540,-1680,-490,28,55,-610,987.28,
00:10:15.90,-42,7,1027,1470,-1680,-490,39,55,-612,987.28,
00:10:15.92,-41,7,1027,1540,-1750,-490,36,61,-615,987.28,
00:10:15.94,-39,7,1027,1540,-1680,-490,33,60,-618,987.28,
00:10:15.96,-42,6,1027,1540,-1680,-490,34,61,-609,987.28,
00:10:15.98,-42,7,1027,1610,-1680,-490,33,54,-615,987.28,
00:10:16.00,-41,7,1026,1540,-1680,-490,34,57,-616,987.28,
00:10:16.02,-41,7,1026,1470,-1680,-490,34,52,-616,987.28,
00:10:16.04,-39,8,1027,1540,-1750,-490,27,54,-612,987.28,
00:10:16.06,-42,7,1026,1540,-1680,-560,33,58,-615,987.28,
00:10:16.08,-41,7,1026,1470,-1680,-560,31,51,-609,987.28,
00:10:16.10,-41,8,1027,1540,-1680,-490,28,49,-610,987.28,
00:10:16.12,-39,7,1025,1470,-1680,-490,33,48,-603,987.28,
00:10:16.14,-37,7,1026,1540,-1680,-560,37,54,-604,987.28,
00:10:16.16,-36,7,1027,1540,-1680,-490,30,51,-609,987.28,
00:10:16.18,-41,7,1025,1470,-1750,-490,28,54,-612,987.27,
00:10:16.20,-40,7,1026,1470,-1680,-560,27,55,-619,987.27,
00:10:16.22,-38,8,1024,1540,-1680,-490,33,49,-615,987.28,
00:10:16.24,-37,6,1025,1540,-1680,-560,22,54,-615,987.28,
00:10:16.26,-37,7,1026,1540,-1680,-560,34,57,-615,987.28,
00:10:16.28,-38,7,1026,1540,-1680,-560,37,57,-609,987.28,
00:10:16.30,-40,9,1026,1540,-1680,-490,33,52,-613,987.28,
00:10:16.32,-37,7,1027,1540,-1610,-560,28,54,-613,987.28,
00:10:16.34,-37,8,1026,1540,-1680,-490,33,51,-618,987.28,
00:10:16.36,-37,7,1026,1540,-1610,-560,37,57,-612,987.28,
00:10:16.38,-38,7,1027,1470,-1610,-490,31,61,-610,987.28,
00:10:16.40,-40,6,1025,1540,-1680,-560,34,52,-615,987.28,
00:10:16.42,-37,9,1025,1610,-1680,-490,27,58,-612,987.29,
00:10:16.44,-36,7,1026,1470,-1680,-560,34,57,-610,987.29,
00:10:16.46,-38,7,1025,1540,-1610,-560,34,55,-610,987.29,
00:10:16.48,-38,7,1025,1540,-1680,-560,30,55,-607,987.29,
00:10:16.50,-41,6,1025,1540,-1680,-560,27,48,-613,987.28,
00:10:16.52,-41,6,1025,1540,-1680,-490,30,58,-612,987.28,
00:10:16.54,-37,8,1027,1540,-1680,-560,31,52,-618,987.28,
00:10:16.56,-37,7,1027,1470,-1680,-560,34,55,-610,987.28,
00:10:16.58,-41,8,1026,1470,-1680,-560,31,45,-609,987.28,
00:10:16.60,-41,6,1025,1470,-1680,-490,31,51,-612,987.28,
00:10:16.62,-42,7,1024,1540,-1680,-490,31,55,-612,987.28,
00:10:16.64,-43,7,1024,1610,-1750,-490,33,55,-609,987.28,
00:10:16.66,-39,7,1026,1540,-1610,-560,30,54,-616,987.28,
00:10:16.68,-40,7,1025,1540,-1680,-490,37,54,-607,987.28,
00:10:16.70,-41,7,1026,1540,-1680,-490,39,52,-612,987.28,
00:10:16.72,-41,7,1025,1540,-1680,-490,36,60,-613,987.28,
00:10:16.74,-42,7,1025,1540,-1680,-490,30,48,-610,987.28,
00:10:16.76,-42,7,1024,1540,-1750,-560,39,54,-618,987.28,
00:10:16.78,-39,6,1026,1540,-1750,-490,30,57,-615,987.28,
00:10:16.80,-41,7,1025,1470,-1680,-490,36,54,-612,987.28,
00:10:16.82,-42,6,1026,1540,-1680,-490,28,60,-613,987.28,
00:10:16.84,-43,6,1024,1540,-1680,-490,34,49,-612,987.28,
00:10:16.86,-40,8,1025,1610,-1750,-490,27,49,-615,987.28,
00:10:16.88,-40,6,1027,1540,-1680,-490,30,48,-612,987.28,
00:10:16.90,-43,7,1026,1610,-1680,-490,33,51,-610,987.28,
00:10:16.92,-41,7,1026,1540,-1680,-560,27,60,-609,987.28,
00:10:16.94,-41,6,1027,1470,-1680,-490,31,51,-613,987.28,
00:10:16.96,-41,7,1026,1610,-1680,-490,33,49,-610,987.28,
00:10:16.98,-39,7,1026,1540,-1680,-490,30,49,-612,987.28,
00:10:17.00,-42,6,1026,1540,-1680,-490,24,49,-616,987.29,
00:10:17.02,-42,7,1025,1540,-1680,-490,27,57,-610,987.29,
00:10:17.04,-42,7,1026,1470,-1680,-490,36,51,-609,987.28,
00:10:17.06,-40,7,1027,1540,-1680,-490,33,55,-616,987.28,
00:10:17.08,-39,9,1027,1540,-1680,-560,46,60,-606,987.28,
00:10:17.10,-38,7,1026,1470,-1680,-490,22,46,-612,987.28,
00:10:17.12,-41,7,1026,1540,-1680,-490,36,51,-609,987.29,
00:10:17.14,-41,7,1025,1540,-1680,-490,31,60,-609,987.29,
00:10:17.16,-40,8,1026,1470,-1680,-490,45,54,-609,987.28,
00:10:17.18,-38,9,1025,1540,-1680,-560,39,57,-610,987.28,
00:10:17.20,-38,8,1028,1470,-1680,-560,19,51,-607,987.28,
00:10:17.22,-35,7,1027,1540,-1610,-560,40,46,-606,987.28,
00:10:17.24,-40,9,1024,1540,-1680,-490,36,66,-615,987.29,
00:10:17.26,-40,7,1027,1470,-1750,-560,33,51,-615,987.29,
00:10:17.28,-38,7,1025,1610,-1680,-490,31,55,-612,987.28,
00:10:17.30,-38,8,1025,1610,-1680,-560,40,52,-616,987.28,
00:10:17.32,-37,7,1026,1540,-1680,-560,31,54,-615,987.28,
00:10:17.34,-38,7,1026,1540,-1680,-560,42,57,-609,987.28,
00:10:17.36,-38,8,1026,1540,-1680,-560,28,60,-612,987.29,
00:10:17.38,-38,7,1025,1540,-1680,-490,34,57,-616,987.29,
00:10:17.40,-37,7,1026,1540,-1680,-560,31,51,-606,987.29,
00:10:17.42,-36,8,1026,1540,-1680,-490,43,54,-619,987.29,
00:10:17.44,-38,7,1025,1470,-1610,-560,42,60,-618,987.29,
00:10:17.46,-40,7,1024,1540,-1680,-560,30,48,-613,987.29,
00:10:17.48,-37,8,1024,1540,-1680,-560,36,46,-613,987.28,
00:10:17.50,-38,8,1025,1540,-1680,-560,33,64,-615,987.28,
00:10:17.52,-38,6,1025,1540,-1680,-560,27,49,-610,987.28,
00:10:17.54,-37,7,1025,1540,-1680,-490,37,58,-615,987.28,
00:10:17.56,-40,7,1024,1470,-1680,-490,39,57,-609,987.29,
00:10:17.58,-43,6,1023,1540,-1750,-560,40,52,-612,987.29,
00:10:17.60,-36,8,1023,1540,-1680,-490,31,49,-612,987.28,
00:10:17.62,-37,6,1023,1540,-1680,-560,27,52,-612,987.28,
00:10:17.64,-37,7,1026,1680,-1750,-700,36,57,-606,987.28,
00:10:17.66,-44,5,1023,1400,-1750,-280,39,51,-615,987.28,
00:10:17.68,-43,7,1021,1960,-1680,-980,30,58,-612,987.28,
00:10:17.70,-29,3,1024,1330,-1820,0,40,49,-609,987.28,
00:10:17.72,-30,2,1027,1470,-1820,-70,30,55,-618,987.28,
00:10:17.74,-45,10,1021,1890,-1610,-700,30,57,-612,987.28,
00:10:17.76,-41,4,1028,1260,-1750,-490,25,54,-621,987.28,
00:10:17.78,-33,2,1024,1750,-1750,-210,37,46,-612,987.28,
00:10:17.80,-61,13,1016,1610,-1680,-770,34,55,-610,987.28,
00:10:17.82,-16,3,1032,1960,-1680,-1540,34,51,-613,987.28,
00:10:17.84,-16,1,1029,1260,-1820,210,33,48,-615,987.28,
00:10:17.86,-58,10,1023,1680,-1540,-910,33,48,-619,987.28,
00:10:17.88,-32,7,1025,1470,-1750,-490,33,57,-610,987.29,
00:10:17.90,-40,6,1027,1400,-1680,-280,33,54,-607,987.29,
00:10:17.92,-49,10,1022,1680,-1610,-770,36,54,-603,987.28,
00:10:17.94,-50,10,1027,1680,-1610,-840,30,54,-609,987.28,
00:10:17.96,-36,6,1028,1400,-1750,-280,34,58,-613,987.28,
00:10:17.98,-46,11,1026,1680,-1610,-630,34,51,-612,987.28,
00:10:18.00,-38,5,1027,1470,-1680,-560,33,52,-609,987.28,
00:10:18.02,-44,6,1028,1540,-1610,-560,30,55,-607,987.28,
00:10:18.04,-35,7,1026,1750,-1680,-420,28,51,-610,987.28,
00:10:18.06,-41,6,1026,1400,-1750,-490,36,54,-603,987.28,
00:10:18.08,-44,6,1026,1540,-1680,-490,49,52,-613,987.28,
00:10:18.10,-40,9,1025,1750,-1750,-490,34,54,-606,987.28,
00:10:18.12,-37,9,1026,1540,-1750,-490,36,61,-612,987.28,
00:10:18.14,-41,8,1028,1610,-1610,-630,39,52,-613,987.28,
00:10:18.16,-36,7,1028,1680,-1680,-420,33,57,-609,987.28,
00:10:18.18,-39,8,1026,1610,-1680,-490,39,48,-613,987.28,
00:10:18.20,-43,9,1026,1680,-1680,-630,31,52,-612,987.28,
00:10:18.22,-36,7,1027,1610,-1680,-490,36,61,-613,987.28,
00:10:18.24,-38,8,1027,1680,-1680,-560,33,52,-612,987.28,
00:10:18.26,-40,8,1026,1750,-1680,-630,40,49,-603,987.28,
00:10:18.28,-34,7,1027,1610,-1750,-490,33,55,-612,987.28,
00:10:18.30,-34,6,1028,1540,-1750,-490,34,52,-619,987.28,
00:10:18.32,-40,9,1027,1680,-1680,-630,42,49,-616,987.28,
00:10:18.34,-36,7,1028,1540,-1750,-490,27,46,-609,987.28,
00:10:18.36,-39,9,1029,1610,-1680,-630,22,45,-612,987.28,
00:10:18.38,-33,7,1027,1610,-1680,-490,30,52,-609,987.28,
00:10:18.40,-40,7,1027,1470,-1680,-630,37,58,-610,987.28,
00:10:18.42,-40,8,1027,1540,-1680,-560,34,51,-615,987.28,
00:10:18.44,-40,9,1027,1540,-1750,-560,37,52,-612,987.28,
00:10:18.46,-35,7,1026,1610,-1680,-490,37,52,-607,987.28,
00:10:18.48,-33,6,1027,1610,-1680,-560,33,52,-610,987.28,
00:10:18.50,-42,6,1027,1400,-1680,-490,34,57,-612,987.28,
00:10:18.52,-48,4,1025,1680,-1610,-560,34,58,-610,987.28,
00:10:18.54,-38,9,1030,1540,-1680,-630,40,49,-607,987.28,
00:10:18.56,-37,9,1027,1610,-1750,-420,33,49,-618,987.28,
00:10:18.58,-42,11,1028,1610,-1680,-770,31,58,-609,987.28,
00:10:18.60,-33,6,1026,1750,-1750,-490,31,60,-610,987.28,
00:10:18.62,-41,4,1029,1330,-1680,-630,37,61,-618,987.28,
00:10:18.64,-44,5,1028,1680,-1680,-560,30,61,-621,987.28,
00:10:18.66,-35,7,1028,1400,-1680,-560,31,49,-612,987.29,
00:10:18.68,-38,9,1030,1610,-1750,-560,30,48,-615,987.29,
00:10:18.70,-38,8,1025,1610,-1680,-560,22,57,-607,987.28,
00:10:18.72,-38,6,1030,1400,-1680,-490,33,60,-604,987.28,
00:10:18.74,-43,10,1027,1680,-1750,-560,37,52,-606,987.28,
00:10:18.76,-38,5,1026,1470,-1680,-420,28,46,-615,987.28,
00:10:18.78,-25,10,1029,2030,-1750,-350,30,52,-610,987.29,
00:10:18.80,-50,-12,1018,1120,-1610,-700,27,54,-610,987.29,
00:10:18.82,-90,3,1032,1120,-1540,-910,31,57,-613,987.30,
00:10:18.84,12,13,1030,2590,-2170,840,33,55,-613,987.30,
00:10:18.86,-24,14,1008,1610,-1820,-1400,34,55,-606,987.29,
00:10:18.88,-59,-9,1040,840,-1820,-350,25,54,-607,987.29,
00:10:18.90,-25,13,1026,2800,-1820,-70,36,52,-615,987.28,
00:10:18.92,-25,16,1014,1470,-1680,-560,40,58,-603,987.28,
00:10:18.94,-61,0,1041,280,-1400,-910,30,55,-610,987.28,
00:10:18.96,-42,7,1028,2450,-1890,-140,39,51,-610,987.28,
00:10:18.98,-30,15,1021,1680,-1680,-490,30,57,-612,987.28,
00:10:19.00,-45,3,1035,1330,-1610,-700,30,57,-609,987.28,
00:10:19.02,-44,7,1025,1890,-1680,-420,37,49,-613,987.28,
00:10:19.04,-36,10,1026,1540,-1750,-420,34,57,-609,987.28,
00:10:19.06,-38,7,1029,1470,-1680,-560,30,54,-607,987.28,
00:10:19.08,-48,5,1030,1470,-1680,-560,36,55,-616,987.28,
00:10:19.10,-40,8,1027,1750,-1680,-420,31,45,-610,987.28,
00:10:19.12,-40,7,1030,1470,-1680,-630,39,49,-610,987.28,
00:10:19.14,-44,7,1027,1610,-1750,-490,22,61,-609,987.28,
00:10:19.16,-43,7,1029,1400,-1750,-490,28,60,-610,987.28,
00:10:19.18,-38,7,1028,1680,-1750,-420,33,55,-610,987.28,
00:10:19.20,-42,10,1027,1470,-1680,-560,24,43,-616,987.28,
00:10:19.22,-40,6,1030,1470,-1680,-560,31,61,-618,987.28,
00:10:19.24,-39,8,1026,1750,-1750,-490,27,55,-609,987.28,
00:10:19.26,-43,6,1028,1400,-1750,-490,22,51,-618,987.29,
00:10:19.28,-44,6,1029,1540,-1680,-560,25,58,-613,987.29,
00:10:19.30,-37,8,1027,1680,-1750,-420,42,55,-613,987.29,
00:10:19.32,-39,9,1030,1470,-1610,-560,27,55,-613,987.29,
00:10:19.34,-38,8,1030,1470,-1680,-560,34,43,-615,987.29,
00:10:19.36,-40,7,1028,1610,-1680,-490,25,55,-616,987.29,
00:10:19.38,-40,8,1029,1470,-1680,-490,28,49,-613,987.28,
00:10:19.40,-42,8,1030,1470,-1680,-560,30,55,-612,987.28,
00:10:19.42,-37,8,1030,1680,-1750,-560,39,49,-619,987.28,
00:10:19.44,-37,8,1032,1540,-1680,-490,25,57,-609,987.28,
00:10:19.46,-38,8,1030,1540,-1680,-560,31,61,-613,987.28,
00:10:19.48,-41,9,1030,1540,-1680,-560,25,64,-609,987.28,
00:10:19.50,-38,7,1029,1540,-1680,-490,37,54,-604,987.28,
00:10:19.52,-39,9,1030,1610,-1680,-560,31,49,-618,987.28,
00:10:19.54,-36,8,1031,1540,-1680,-490,21,49,-619,987.28,
00:10:19.56,-37,7,1029,1540,-1610,-560,39,46,-616,987.28,
00:10:19.58,-36,9,1030,1540,-1680,-490,30,51,-619,987.28,
00:10:19.60,-39,10,1031,1540,-1680,-490,28,52,-618,987.28,
00:10:19.62,-40,9,1030,1610,-1610,-630,36,46,-615,987.28,
00:10:19.64,-34,6,1030,1470,-1680,-490,30,57,-616,987.28,
00:10:19.66,-39,8,1030,1610,-1610,-630,27,60,-613,987.27,
00:10:19.68,-36,5,1030,1610,-1680,-560,37,54,-618,987.27,
00:10:19.70,-38,8,1029,1610,-1680,-490,19,48,-609,987.28,
00:10:19.72,-38,6,1031,1470,-1680,-560,36,51,-613,987.28,
00:10:19.74,-38,8,1030,1610,-1680,-560,36,54,-604,987.28,
00:10:19.76,-38,8,1031,1540,-1680,-630,24,55,-613,987.28,
00:10:19.78,-38,6,1029,1540,-1680,-490,27,46,-603,987.28,
00:10:19.80,-38,7,1029,1540,-1610,-490,33,52,-613,987.28,
00:10:19.82,-44,8,1028,1470,-1680,-560,27,45,-609,987.28,
00:10:19.84,-38,7,1030,1540,-1680,-560,39,55,-609,987.28,
00:10:19.86,-39,9,1029,1540,-1680,-560,37,49,-615,987.28,
00:10:19.88,-37,9,1027,1610,-1680,-490,39,49,-607,987.28,
00:10:19.90,-38,7,1026,1400,-1680,-490,31,57,-604,987.28,
00:10:19.92,-45,7,1027,1540,-1680,-560,33,52,-612,987.28,
00:10:19.94,-40,18,1032,1680,-1680,-630,28,51,-613,987.28,
00:10:19.96,-38,4,1034,1400,-1680,-490,33,52,-607,987.28,
00:10:19.98,-40,3,1025,1680,-1750,-420,30,55,-613,987.28,
00:10:20.00,-38,7,1023,1680,-1750,-560,40,52,-607,987.28,
00:10:20.02,-38,4,1028,1260,-1750,-490,33,60,-613,987.28,
00:10:20.04,-41,7,1025,1820,-1610,-490,31,57,-609,987.28,
00:10:20.06,-40,6,1031,1330,-1610,-560,24,54,-613,987.28,
00:10:20.08,-39,6,1027,1680,-1680,-490,30,55,-615,987.28,
00:10:20.10,-41,8,1025,1470,-1750,-490,40,49,-609,987.28,
00:10:20.12,-42,7,1027,1470,-1680,-490,42,52,-619,987.28,
00:10:20.14,-40,9,1028,1540,-1750,-420,36,58,-603,987.28,
00:10:20.16,-41,9,1026,1540,-1750,-560,31,49,-618,987.28,
00:10:20.18,-44,7,1027,1470,-1680,-560,36,55,-613,987.28,
00:10:20.20,-40,7,1026,1610,-1680,-560,22,55,-607,987.28,
00:10:20.22,-42,8,1026,1470,-1750,-560,33,52,-615,987.28,
00:10:20.24,-40,8,1029,1540,-1680,-560,42,57,-619,987.28,
00:10:20.26,-39,9,1026,1610,-1750,-490,28,42,-615,987.28,
00:10:20.28,-38,8,1028,1400,-1750,-560,31,54,-610,987.28,
00:10:20.30,-41,8,1025,1680,-1750,-490,28,52,-610,987.28,
00:10:20.32,-41,7,1025,1540,-1680,-490,21,52,-613,987.28,
00:10:20.34,-40,8,1028,1470,-1680,-490,30,49,-610,987.28,
00:10:20.36,-39,9,1027,1610,-1680,-490,36,57,-621,987.28,
00:10:20.38,-36,7,1028,1400,-1680,-560,28,55,-618,987.28,
00:10:20.40,-39,9,1029,1540,-1680,-560,36,52,-613,987.28,
00:10:20.42,-41,9,1027,1540,-1750,-560,33,57,-619,987.28,
00:10:20.44,-40,9,1029,1540,-1680,-490,37,48,-610,987.28,
00:10:20.46,-39,9,1026,1610,-1680,-490,31,58,-618,987.28,
00:10:20.48,-38,9,1028,1540,-1680,-560,30,54,-607,987.28,
00:10:20.50,-37,8,1029,1540,-1680,-560,39,64,-615,987.28,
00:10:20.52,-38,4,1026,1610,-1680,-490,39,57,-618,987.28,
00:10:20.54,-41,9,1030,1470,-1540,-420,24,52,-616,987.28,
00:10:20.56,-38,11,1026,1610,-1820,-490,28,54,-615,987.27,
00:10:20.58,-38,8,1028,1470,-1680,-630,33,60,-615,987.27,
00:10:20.60,-38,6,1030,1540,-1680,-560,22,58,-609,987.27,
00:10:20.62,-38,2,1025,1680,-1680,-490,31,57,-613,987.27,
00:10:20.64,-43,5,1024,1470,-1750,-630,43,54,-609,987.28,
00:10:20.66,-38,10,1030,1610,-1680,-630,27,54,-612,987.28,
00:10:20.68,-38,5,1027,1470,-1680,-490,34,51,-610,987.27,
00:10:20.70,-37,6,1029,1540,-1680,-490,34,57,-615,987.27,
00:10:20.72,-38,6,1027,1540,-1680,-420,31,58,-609,987.28,
00:10:20.74,-41,7,1025,1610,-1680,-490,37,57,-609,987.28,
00:10:20.76,-40,6,1028,1330,-1680,-420,25,60,-619,987.28,
00:10:20.78,-37,7,1026,1540,-1680,-350,25,46,-612,987.28,
00:10:20.80,-41,9,1026,1540,-1680,-560,24,49,-613,987.28,
00:10:20.82,-36,4,1026,1400,-1750,-420,27,45,-616,987.28,
00:10:20.84,-39,7,1026,1540,-1680,-420,33,52,-613,987.28,
00:10:20.86,-43,6,1025,1470,-1680,-420,36,58,-613,987.28,
00:10:20.88,-39,5,1029,1540,-1680,-490,27,60,-610,987.28,
00:10:20.90,-40,6,1023,1540,-1680,-490,27,58,-618,987.28,
00:10:20.92,-38,8,1026,1470,-1680,-420,30,55,-609,987.28,
00:10:20.94,-42,7,1027,1400,-1610,-560,31,54,-612,987.28,
00:10:20.96,-40,9,1024,1540,-1610,-490,25,58,-613,987.27,
00:10:20.98,-41,9,1025,1470,-1610,-490,30,54,-610,987.27,
00:10:21.00,-36,5,1026,1540,-1610,-490,27,49,-613,987.27,
00:10:21.02,-45,3,1023,1680,-1540,-560,30,57,-613,987.27,
00:10:21.04,-40,6,1028,1330,-1610,-490,40,45,-610,987.27,
00:10:21.06,-48,6,1025,1680,-1540,-560,31,52,-615,987.27,
00:10:21.08,-37,10,1027,1470,-1680,-420,30,51,-616,987.28,
00:10:21.10,-45,6,1026,1540,-1540,-490,31,52,-603,987.28,
00:10:21.12,-50,3,1028,1540,-1470,-630,34,48,-610,987.27,
00:10:21.14,-35,5,1029,1470,-1680,-420,22,51,-610,987.27,
00:10:21.16,-42,10,1026,1610,-1610,-490,37,55,-622,987.27,
00:10:21.18,-45,4,1025,1400,-1680,-770,31,46,-606,987.27,
00:10:21.20,-28,1,1029,1470,-1750,-560,34,52,-612,987.27,
00:10:21.22,-38,8,1024,1890,-1610,-840,27,55,-613,987.28,
00:10:21.24,-47,7,1032,1330,-1750,-980,34,60,-619,987.28,
00:10:21.26,-31,8,1020,1890,-1960,-280,30,49,-618,987.28,
00:10:21.28,-43,15,1030,1400,-1470,-1120,25,52,-610,987.28,
00:10:21.30,-34,11,1031,1260,-1890,-280,33,57,-612,987.28,
00:10:21.32,-52,3,1022,1680,-1330,-1050,27,54,-613,987.28,
00:10:21.34,-20,12,1029,1400,-2030,-70,31,58,-609,987.28,
00:10:21.36,-33,13,1027,1470,-1890,-280,34,52,-604,987.28,
00:10:21.38,-50,8,1027,1470,-1470,-630,30,51,-607,987.27,
00:10:21.40,-30,8,1030,1470,-1750,-490,30,49,-613,987.27,
00:10:21.42,-32,7,1023,1540,-1750,-210,25,48,-607,987.27,
00:10:21.44,-48,11,1029,1190,-1610,-840,25,49,-606,987.27,
00:10:21.46,-34,1,1028,1470,-1750,-210,36,51,-603,987.28,
00:10:21.48,-40,6,1029,1050,-1610,-420,34,55,-609,987.28,
00:10:21.50,-37,5,1030,1470,-1750,-560,33,49,-609,987.28,
00:10:21.52,-31,6,1027,1750,-1680,-280,42,55,-618,987.28,
00:10:21.54,-38,-5,1027,910,-1540,-420,30,52,-610,987.28,
00:10:21.56,-38,-7,1019,1610,-1540,0,33,58,-609,987.28,
00:10:21.58,-40,36,1024,2030,-1750,0,36,55,-610,987.28,
00:10:21.60,-76,-16,1015,560,-1750,-560,30,52,-613,987.28,
00:10:21.62,-1,20,1039,2310,-1750,-490,39,54,-601,987.28,
00:10:21.64,-54,25,1020,1960,-1820,-350,33,48,-613,987.28,
00:10:21.66,-62,0,1028,840,-1400,-1470,31,55,-610,987.28,
00:10:21.68,-21,-2,1030,1960,-2030,420,33,49,-610,987.28,
00:10:21.70,-40,13,1021,2030,-1610,-1120,37,57,-612,987.28,
00:10:21.72,-49,-1,1035,1190,-1820,-840,33,55,-610,987.28,
00:10:21.74,-26,6,1029,1680,-2100,-350,24,54,-610,987.28,
00:10:21.76,-23,7,1019,1330,-2030,-350,39,60,-609,987.28,
00:10:21.78,-48,10,1028,910,-1610,-980,34,58,-610,987.28,
00:10:21.80,-43,2,1034,1120,-1890,-350,36,49,-612,987.28,
00:10:21.82,-38,13,1026,1540,-1890,-350,34,63,-610,987.28,
00:10:21.84,-46,10,1024,1260,-1750,-700,31,49,-600,987.28,
00:10:21.86,-49,9,1031,1260,-1750,-560,30,49,-607,987.28,
00:10:21.88,-40,8,1025,1820,-1820,-350,40,51,-610,987.28,
00:10:21.90,-40,9,1025,1540,-1680,-560,30,57,-616,987.29,
00:10:21.92,-43,7,1032,1260,-1680,-490,30,57,-607,987.29,
00:10:21.94,-27,9,1027,1680,-1960,-140,37,52,-616,987.28,
00:10:21.96,-57,7,1020,1680,-1470,-980,24,57,-607,987.28,
00:10:21.98,-15,0,1026,1330,-1890,-140,25,52,-613,987.28,
00:10:22.00,-54,7,1034,1470,-1540,-700,39,54,-613,987.28,
00:10:22.02,-35,12,1028,1890,-1960,-560,27,55,-613,987.28,
00:10:22.04,-42,6,1023,1330,-1400,-350,37,57,-621,987.28,
00:10:22.06,-46,6,1026,1260,-1400,-840,31,45,-604,987.30,
00:10:22.08,-41,2,1032,1330,-1470,-350,31,46,-612,987.30,
00:10:22.10,-36,19,1031,1960,-1750,-350,27,63,-616,987.29,
00:10:22.12,-44,7,1028,1330,-1470,-770,34,57,-603,987.29,
00:10:22.14,-30,3,1028,1470,-1680,-280,28,60,-619,987.29,
00:10:22.16,-38,15,1030,1680,-1680,-630,39,45,-612,987.29,
00:10:22.18,-50,7,1025,1470,-1540,-700,33,48,-612,987.29,
00:10:22.20,-45,5,1030,1470,-1610,-490,24,54,-610,987.29,
00:10:22.22,-35,6,1025,1750,-1680,-420,40,51,-609,987.29,
00:10:22.24,-44,7,1025,1470,-1540,-630,30,57,-612,987.29,
00:10:22.26,-26,7,1032,1610,-1750,-490,37,54,-609,987.28,
00:10:22.28,-44,8,1022,1680,-1680,-560,33,45,-609,987.28,
00:10:22.30,-43,10,1028,1470,-1610,-560,30,51,-613,987.28,
00:10:22.32,-31,6,1025,1820,-1680,-560,28,57,-613,987.28,
00:10:22.34,-39,5,1024,1470,-1610,-560,28,54,-607,987.29,
00:10:22.36,-54,4,1026,1470,-1540,-770,43,52,-612,987.29,
00:10:22.38,-37,4,1027,1680,-1750,-280,34,45,-606,987.28,
00:10:22.40,-29,9,1023,1750,-1680,-630,28,57,-610,987.28,
00:10:22.42,-38,7,1031,1190,-1750,-490,37,57,-612,987.29,
00:10:22.44,-38,10,1024,2030,-1610,-700,28,49,-606,987.29,
00:10:22.46,-21,2,1023,1330,-1820,-280,39,52,-613,987.29,
00:10:22.48,-80,5,1026,1400,-1260,-1330,31,58,-604,987.29,
00:10:22.50,-16,-2,1029,1680,-2170,280,27,45,-612,987.29,
00:10:22.52,-41,19,1020,1890,-1610,-770,27,55,-612,987.29,
00:10:22.54,-59,4,1029,1190,-1540,-980,34,61,-603,987.28,
00:10:22.56,-33,4,1028,1890,-1820,-280,31,61,-609,987.28,
00:10:22.58,-35,12,1018,1750,-1820,-350,24,51,-610,987.29,
00:10:22.60,-42,6,1028,1190,-1540,-910,39,57,-607,987.29,
00:10:22.62,-42,3,1028,1610,-1750,-350,31,51,-613,987.29,
00:10:22.64,-42,9,1021,1820,-1750,-490,28,45,-613,987.29,
00:10:22.66,-46,6,1027,1400,-1610,-700,28,49,-613,987.29,
00:10:22.68,-41,5,1025,1680,-1820,-490,33,49,-616,987.29,
00:10:22.70,-43,5,1022,1680,-1680,-560,31,55,-618,987.29,
00:10:22.72,-37,8,1027,1400,-1750,-490,28,54,-607,987.29,
00:10:22.74,-45,7,1026,1610,-1680,-630,33,49,-609,987.29,
00:10:22.76,-34,6,1025,1540,-1750,-420,27,55,-615,987.29,
00:10:22.78,-38,4,1026,1400,-1750,-420,30,54,-615,987.29,
00:10:22.80,-42,7,1027,1610,-1750,-560,33,51,-606,987.29,
00:10:22.82,-40,7,1027,1610,-1680,-490,27,58,-621,987.29,
00:10:22.84,-38,6,1027,1470,-1750,-420,28,58,-612,987.29,
00:10:22.86,-39,9,1029,1540,-1680,-560,31,54,-615,987.29,
00:10:22.88,-35,7,1026,1610,-1750,-560,31,54,-616,987.28,
00:10:22.90,-39,8,1028,1610,-1750,-490,34,55,-609,987.28,
00:10:22.92,-44,9,1027,1470,-1680,-560,33,49,-612,987.29,
00:10:22.94,-37,5,1029,1540,-1680,-490,27,54,-615,987.29,
00:10:22.96,-38,8,1027,1680,-1680,-560,36,63,-610,987.29,
00:10:22.98,-35,5,1028,1470,-1680,-560,36,51,-609,987.29,
00:10:23.00,-40,6,1028,1540,-1680,-490,33,57,-616,987.29,
00:10:23.02,-40,8,1027,1540,-1680,-490,40,54,-612,987.29,
00:10:23.04,-40,6,1026,1610,-1680,-560,25,51,-606,987.30,
00:10:23.06,-33,7,1028,1540,-1680,-490,33,60,-609,987.30,
00:10:23.08,-39,7,1025,1540,-1680,-560,24,61,-610,987.30,
00:10:23.10,-39,6,1029,1540,-1680,-560,39,61,-612,987.30,
00:10:23.12,-39,7,1024,1610,-1750,-420,30,43,-609,987.30,
00:10:23.14,-38,7,1025,1540,-1610,-560,25,63,-612,987.30,
00:10:23.16,-36,7,1026,1540,-1750,-490,34,63,-606,987.30,
00:10:23.18,-37,7,1024,1680,-1680,-560,16,55,-607,987.30,
00:10:23.20,-38,6,1024,1540,-1680,-490,34,54,-618,987.30,
00:10:23.22,-41,6,1026,1540,-1680,-560,27,51,-618,987.30,
00:10:23.24,-35,8,1025,1680,-1750,-560,34,51,-615,987.30,
00:10:23.26,-36,8,1026,1540,-1680,-490,37,55,-612,987.30,
00:10:23.28,-39,7,1025,1540,-1680,-560,25,57,-604,987.30,
00:10:23.30,-39,4,1025,1610,-1680,-490,28,63,-613,987.30,
00:10:23.32,-39,7,1023,1610,-1680,-490,27,45,-606,987.32,
00:10:23.34,-43,6,1023,1470,-1610,-560,28,48,-610,987.32,
00:10:23.36,-38,6,1026,1610,-1680,-560,31,51,-613,987.30,
00:10:23.38,-36,6,1024,1610,-1680,-490,22,54,-613,987.30,
00:10:23.40,-41,6,1024,1400,-1680,-560,33,52,-604,987.30,
00:10:23.42,-40,6,1023,1540,-1680,-490,36,58,-610,987.30,
00:10:23.44,-42,7,1022,1540,-1680,-490,36,66,-610,987.30,
00:10:23.46,-44,6,1024,1540,-1680,-560,34,63,-615,987.30,
00:10:23.48,-39,6,1025,1680,-1680,-560,36,55,-606,987.30,
00:10:23.50,-41,6,1024,1470,-1680,-490,36,54,-612,987.30,
00:10:23.52,-42,6,1025,1540,-1680,-560,37,57,-610,987.30,
00:10:23.54,-41,7,1024,1540,-1680,-490,37,57,-613,987.30,
00:10:23.56,-42,7,1026,1470,-1680,-490,39,61,-609,987.30,
00:10:23.58,-40,6,1028,1540,-1680,-490,36,51,-609,987.30,
00:10:23.60,-41,6,1027,1540,-1680,-490,34,55,-609,987.32,
00:10:23.62,-42,7,1027,1540,-1680,-490,30,54,-610,987.32,
00:10:23.64,-42,6,1026,1540,-1680,-490,33,55,-615,987.32,
00:10:23.66,-39,7,1026,1610,-1680,-490,37,57,-610,987.32,
00:10:23.68,-39,7,1027,1470,-1680,-560,34,55,-612,987.32,
00:10:23.70,-38,7,1028,1540,-1610,-560,33,54,-619,987.32,
00:10:23.72,-42,7,1027,1610,-1750,-490,34,55,-616,987.30,
00:10:23.74,-41,7,1026,1540,-1750,-490,28,61,-613,987.30,
00:10:23.76,-40,6,1027,1540,-1680,-490,36,57,-607,987.30,
00:10:23.78,-37,7,1028,1540,-1680,-490,33,61,-607,987.30,
00:10:23.80,-38,7,1028,1540,-1680,-560,25,57,-613,987.30,
00:10:23.82,-36,6,1027,1470,-1680,-490,31,52,-609,987.30,
00:10:23.84,-40,8,1025,1540,-1750,-490,27,61,-597,987.32,
00:10:23.86,-38,7,1026,1610,-1680,-560,33,58,-612,987.32,
00:10:23.88,-38,7,1027,1470,-1680,-490,28,46,-619,987.30,
00:10:23.90,-37,7,1026,1540,-1680,-560,27,55,-616,987.30,
00:10:23.92,-37,6,1026,1540,-1610,-490,31,49,-615,987.29,
00:10:23.94,-39,7,1026,1470,-1680,-560,30,54,-606,987.29,
00:10:23.96,-38,7,1027,1610,-1680,-560,37,63,-603,987.29,
00:10:23.98,-37,6,1026,1610,-1680,-490,28,51,-604,987.29,
00:10:24.00,-40,7,1027,1540,-1680,-630,27,61,-609,987.29,
00:10:24.02,-36,5,1026,1540,-1750,-490,31,52,-610,987.29,
00:10:24.04,-40,7,1026,1610,-1680,-560,34,51,-621,987.29,
00:10:24.06,-39,7,1028,1540,-1680,-630,40,54,-619,987.29,
00:10:24.08,-36,7,1027,1610,-1680,-560,34,55,-612,987.29,
00:10:24.10,-38,7,1025,1540,-1680,-560,33,51,-612,987.29,
00:10:24.12,-40,5,1026,1540,-1680,-560,30,52,-615,987.29,
00:10:24.14,-39,6,1025,1610,-1680,-490,21,55,-610,987.29,
00:10:24.16,-41,6,1024,1540,-1680,-630,28,55,-609,987.29,
00:10:24.18,-38,6,1026,1540,-1680,-560,16,57,-610,987.29,
00:10:24.20,-38,7,1025,1610,-1680,-560,37,52,-607,987.29,
00:10:24.22,-41,7,1025,1540,-1680,-560,28,51,-613,987.28,
00:10:24.24,-39,5,1026,1610,-1750,-560,33,60,-610,987.28,
00:10:24.26,-42,7,1024,1610,-1680,-560,36,52,-609,987.28,
00:10:24.28,-41,7,1025,1610,-1750,-560,28,52,-610,987.28,
00:10:24.30,-40,6,1026,1610,-1680,-560,31,61,-609,987.28,
00:10:24.32,-41,5,1026,1540,-1750,-490,37,58,-613,987.28,
00:10:24.34,-42,6,1026,1540,-1750,-560,22,57,-613,987.28,
00:10:24.36,-41,8,1026,1610,-1680,-560,27,61,-609,987.28,
00:10:24.38,-41,6,1027,1540,-1750,-560,30,39,-606,987.29,
00:10:24.40,-39,7,1028,1680,-1680,-630,34,55,-606,987.29,
00:10:24.42,-40,6,1027,1610,-1750,-490,31,52,-618,987.29,
00:10:24.44,-42,6,1026,1610,-1680,-490,34,61,-613,987.29,
00:10:24.46,-41,8,1026,1610,-1750,-560,33,57,-606,987.30,
00:10:24.48,-39,6,1028,1540,-1680,-490,42,63,-618,987.30,
00:10:24.50,-38,8,1029,1610,-1680,-560,22,57,-609,987.29,
00:10:24.52,-37,6,1028,1610,-1680,-560,27,55,-610,987.29,
00:10:24.54,-42,9,1027,1610,-1680,-490,37,54,-604,987.29,
00:10:24.56,-39,7,1027,1540,-1750,-490,33,52,-613,987.29,
00:10:24.58,-39,8,1027,1610,-1680,-560,27,52,-616,987.29,
00:10:24.60,-37,6,1027,1610,-1680,-490,28,54,-610,987.29,
00:10:24.62,-39,7,1027,1540,-1680,-560,27,51,-618,987.29,
00:10:24.64,-35,6,1027,1540,-1680,-490,28,54,-612,987.29,
00:10:24.66,-38,7,1027,1470,-1680,-490,25,60,-612,987.29,
00:10:24.68,-39,8,1027,1610,-1680,-560,24,51,-610,987.29,
00:10:24.70,-36,6,1026,1540,-1680,-560,25,55,-612,987.28,
00:10:24.72,-38,7,1026,1540,-1680,-630,24,57,-607,987.28,
00:10:24.74,-37,7,1027,1610,-1680,-560,31,46,-612,987.30,
00:10:24.76,-40,6,1026,1540,-1680,-560,45,58,-612,987.30,
00:10:24.78,-38,6,1026,1610,-1680,-560,33,48,-616,987.32,
00:10:24.80,-37,8,1025,1610,-1680,-560,31,57,-606,987.32,
00:10:24.82,-37,7,1027,1540,-1680,-560,28,52,-612,987.30,
00:10:24.84,-40,7,1027,1610,-1680,-560,30,52,-615,987.30,
00:10:24.86,-39,7,1024,1610,-1680,-490,33,54,-613,987.30,
00:10:24.88,-43,7,1026,1470,-1680,-560,36,58,-616,987.30,
00:10:24.90,-38,8,1027,1610,-1610,-560,33,60,-618,987.29,
00:10:24.92,-38,7,1026,1540,-1610,-560,28,60,-609,987.29,
00:10:24.94,-40,6,1024,1540,-1680,-490,37,55,-607,987.30,
00:10:24.96,-43,5,1026,1610,-1680,-560,42,52,-612,987.30,
00:10:24.98,-41,6,1025,1540,-1750,-490,33,58,-615,987.29,
00:10:25.00,-37,6,1026,1540,-1680,-420,36,52,-612,987.29,
00:10:25.02,-39,4,1024,1470,-1680,-560,34,55,-618,987.28,
00:10:25.04,-42,8,1025,1540,-1680,-560,22,52,-613,987.28,
00:10:25.06,-41,6,1023,1540,-1750,-420,30,58,-612,987.29,
00:10:25.08,-43,8,1024,1540,-1680,-560,33,52,-612,987.29,
00:10:25.10,-40,9,1026,1540,-1750,-490,28,51,-609,987.30,
00:10:25.12,-40,6,1025,1540,-1680,-490,28,45,-618,987.30,
00:10:25.14,-44,6,1024,1540,-1680,-560,34,58,-613,987.32,
00:10:25.16,-39,5,1024,1540,-1750,-420,34,57,-615,987.32,
00:10:25.18,-43,8,1025,1540,-1680,-490,31,54,-618,987.32,
00:10:25.20,-40,9,1026,1470,-1750,-490,37,55,-615,987.32,
00:10:25.22,-37,6,1025,1540,-1750,-490,34,57,-616,987.32,
00:10:25.24,-44,7,1026,1470,-1680,-560,42,54,-607,987.32,
00:10:25.26,-42,6,1025,1540,-1680,-420,31,51,-615,987.30,
00:10:25.28,-41,8,1026,1540,-1680,-490,31,52,-615,987.30,
00:10:25.30,-41,7,1025,1540,-1680,-560,39,52,-612,987.30,
00:10:25.32,-39,7,1026,1540,-1680,-490,30,52,-609,987.30,
00:10:25.34,-37,8,1026,1540,-1680,-560,33,58,-616,987.29,
00:10:25.36,-43,6,1026,1540,-1680,-490,30,60,-616,987.29,
00:10:25.38,-40,7,1026,1610,-1680,-490,28,55,-616,987.29,
00:10:25.40,-39,8,1027,1540,-1680,-490,43,60,-612,987.29,
00:10:25.42,-39,6,1027,1540,-1680,-560,34,52,-613,987.29,
00:10:25.44,-37,7,1028,1540,-1680,-490,37,57,-606,987.29,
00:10:25.46,-37,7,1028,1540,-1680,-490,31,49,-610,987.29,
00:10:25.48,-39,8,1026,1540,-1680,-490,30,52,-613,987.32,
00:10:25.50,-39,8,1026,1540,-1680,-560,34,49,-612,987.32,
00:10:25.52,-38,7,1026,1540,-1680,-490,34,55,-621,987.30,
00:10:25.54,-37,7,1027,1540,-1680,-560,37,49,-616,987.30,
00:10:25.56,-38,7,1027,1540,-1680,-560,30,48,-616,987.30,
00:10:25.58,-38,6,1026,1540,-1680,-490,31,48,-615,987.30,
00:10:25.60,-38,6,1027,1470,-1680,-560,37,51,-610,987.30,
00:10:25.62,-38,7,1026,1470,-1610,-490,28,55,-618,987.30,
00:10:25.64,-37,6,1026,1540,-1680,-490,39,60,-607,987.30,
00:10:25.66,-36,6,1025,1540,-1680,-560,30,51,-604,987.30,
00:10:25.68,-41,6,1026,1540,-1680,-560,40,58,-612,987.30,
00:10:25.70,-43,7,1026,1540,-1680,-560,34,46,-613,987.30,
00:10:25.72,-37,8,1027,1610,-1680,-560,28,52,-618,987.30,
00:10:25.74,-38,7,1028,1470,-1680,-560,40,54,-607,987.30,
00:10:25.76,-39,5,1029,1540,-1680,-490,25,55,-609,987.32,
00:10:25.78,-40,7,1027,1680,-1680,-560,33,57,-609,987.32,
00:10:25.80,-41,6,1027,1470,-1680,-490,33,51,-606,987.30,
00:10:25.82,-42,6,1029,1540,-1680,-490,30,36,-607,987.30,
00:10:25.84,-41,5,1030,1540,-1680,-560,34,48,-612,987.30,
00:10:25.86,-38,6,1029,1540,-1680,-560,36,48,-612,987.30,
00:10:25.88,-39,7,1027,1610,-1680,-560,40,55,-619,987.29,
00:10:25.90,-42,5,1028,1540,-1680,-560,30,49,-609,987.29,
00:10:25.92,-42,7,1029,1540,-1680,-560,37,52,-613,987.28,
00:10:25.94,-38,7,1029,1540,-1680,-490,28,46,-616,987.28,
00:10:25.96,-39,6,1029,1540,-1680,-490,36,52,-609,987.29,
00:10:25.98,-41,7,1029,1540,-1750,-490,25,57,-606,987.29,
00:10:26.00,-43,7,1028,1610,-1750,-560,42,52,-601,987.29,
00:10:26.02,-42,7,1029,1610,-1750,-490,28,51,-606,987.29,
00:10:26.04,-41,8,1029,1540,-1680,-490,34,54,-610,987.30,
00:10:26.06,-41,6,1030,1540,-1680,-490,24,58,-603,987.30,
00:10:26.08,-42,5,1028,1610,-1680,-490,25,51,-603,987.32,
00:10:26.10,-41,6,1029,1470,-1680,-490,30,63,-607,987.32,
00:10:26.12,-41,7,1029,1610,-1750,-560,37,46,-607,987.30,
00:10:26.14,-39,7,1030,1540,-1680,-490,31,55,-609,987.30,
00:10:26.16,-39,9,1029,1470,-1680,-560,39,55,-609,987.30,
00:10:26.18,-41,5,1029,1470,-1750,-490,30,57,-607,987.30,
00:10:26.20,-41,7,1029,1610,-1750,-490,31,55,-613,987.32,
00:10:26.22,-41,7,1028,1540,-1680,-490,30,52,-609,987.32,
00:10:26.24,-40,7,1027,1540,-1750,-490,34,54,-622,987.32,
00:10:26.26,-38,7,1028,1610,-1750,-560,31,58,-610,987.32,
00:10:26.28,-37,6,1028,1540,-1680,-560,21,60,-606,987.32,
00:10:26.30,-42,6,1027,1540,-1750,-490,36,43,-615,987.32,
00:10:26.32,-41,8,1026,1610,-1680,-490,34,57,-618,987.29,
00:10:26.34,-39,7,1028,1540,-1750,-560,36,51,-613,987.29,
00:10:26.36,-38,7,1029,1610,-1680,-560,39,52,-612,987.29,
00:10:26.38,-36,8,1029,1610,-1680,-560,28,52,-610,987.29,
00:10:26.40,-37,7,1029,1470,-1610,-560,39,52,-618,987.30,
00:10:26.42,-39,8,1028,1540,-1680,-490,25,49,-613,987.30,
00:10:26.44,-38,8,1028,1540,-1680,-490,24,58,-612,987.30,
00:10:26.46,-37,7,1029,1540,-1680,-560,33,58,-615,987.30,
00:10:26.48,-37,6,1028,1540,-1680,-490,30,55,-606,987.30,
00:10:26.50,-37,6,1028,1540,-1610,-560,30,51,-616,987.30,
00:10:26.52,-38,6,1028,1540,-1680,-560,43,61,-607,987.30,
00:10:26.54,-37,7,1028,1540,-1680,-490,39,57,-616,987.30,
00:10:26.56,-37,7,1028,1540,-1680,-560,28,49,-616,987.32,
00:10:26.58,-36,6,1028,1540,-1680,-560,31,57,-610,987.32,
00:10:26.60,-37,7,1028,1610,-1680,-560,39,55,-616,987.30,
00:10:26.62,-40,7,1027,1610,-1680,-490,36,52,-612,987.30,
00:10:26.64,-42,7,1027,1540,-1750,-490,36,52,-621,987.30,
00:10:26.66,-37,7,1026,1540,-1610,-560,37,51,-612,987.30,
00:10:26.68,-38,8,1027,1470,-1680,-560,36,55,-609,987.29,
00:10:26.70,-39,7,1027,1610,-1680,-560,36,55,-612,987.29,
00:10:26.72,-41,5,1026,1470,-1750,-490,30,54,-610,987.29,
00:10:26.74,-43,6,1024,1540,-1680,-490,45,60,-609,987.29,
00:10:26.76,-41,7,1025,1540,-1680,-490,33,54,-615,987.28,
00:10:26.78,-39,7,1025,1540,-1680,-560,37,52,-604,987.28,
00:10:26.80,-39,6,1026,1540,-1680,-490,34,61,-609,987.29,
00:10:26.82,-41,7,1025,1540,-1680,-560,31,58,-616,987.29,
00:10:26.84,-43,6,1025,1540,-1750,-490,36,55,-610,987.30,
00:10:26.86,-42,6,1026,1540,-1750,-560,42,52,-613,987.30,
00:10:26.88,-41,7,1026,1540,-1680,-490,40,49,-606,987.30,
00:10:26.90,-40,7,1025,1540,-1680,-490,39,43,-604,987.29,
00:10:26.92,-42,7,1025,1470,-1680,-490,37,52,-610,987.29,
00:10:26.94,-43,7,1024,1540,-1680,-490,34,55,-615,987.30,
00:10:26.96,-41,6,1026,1540,-1680,-490,39,51,-603,987.30,
00:10:26.98,-39,7,1025,1610,-1750,-490,25,55,-601,987.30,
00:10:27.00,-42,5,1025,1540,-1680,-490,33,58,-616,987.30,
00:10:27.02,-42,6,1024,1540,-1750,-490,33,49,-606,987.32,
00:10:27.04,-41,6,1022,1540,-1680,-490,34,54,-612,987.32,
00:10:27.06,-40,7,1024,1540,-1680,-490,40,48,-604,987.32,
00:10:27.08,-39,7,1026,1540,-1680,-490,25,60,-606,987.32,
00:10:27.10,-38,6,1025,1540,-1750,-560,27,51,-610,987.32,
00:10:27.12,-43,6,1024,1540,-1680,-560,28,45,-610,987.32,
00:10:27.14,-42,7,1024,1540,-1680,-490,33,49,-613,987.32,
00:10:27.16,-40,6,1025,1540,-1680,-560,28,55,-618,987.32,
00:10:27.18,-39,7,1024,1540,-1750,-490,31,55,-609,987.30,
00:10:27.20,-37,7,1024,1540,-1680,-560,33,48,-618,987.30,
00:10:27.22,-36,7,1026,1540,-1680,-490,27,52,-612,987.30,
00:10:27.24,-41,7,1024,1610,-1680,-560,28,46,-613,987.30,
00:10:27.26,-40,7,1023,1540,-1750,-560,33,49,-606,987.30,
00:10:27.28,-37,6,1025,1540,-1680,-560,24,49,-615,987.30,
00:10:27.30,-37,7,1025,1540,-1680,-560,34,60,-610,987.30,
00:10:27.32,-37,6,1024,1540,-1750,-560,33,43,-609,987.30,
00:10:27.34,-38,6,1025,1610,-1680,-560,31,52,-609,987.30,
00:10:27.36,-39,6,1024,1470,-1680,-490,27,61,-604,987.30,
00:10:27.38,-37,7,1025,1540,-1680,-560,30,52,-618,987.30,
00:10:27.40,-37,8,1024,1540,-1680,-490,34,49,-600,987.30,
00:10:27.42,-38,6,1026,1540,-1610,-560,36,58,-604,987.29,
00:10:27.44,-39,6,1025,1540,-1680,-490,33,52,-615,987.29,
00:10:27.46,-41,6,1025,1540,-1750,-490,30,49,-616,987.29,
00:10:27.48,-37,7,1026,1470,-1610,-560,30,55,-604,987.29,
00:10:27.50,-37,7,1025,1540,-1680,-560,30,54,-613,987.29,
00:10:27.52,-38,6,1026,1540,-1680,-560,25,55,-612,987.29,
00:10:27.54,-38,6,1025,1540,-1680,-560,34,58,-619,987.29,
00:10:27.56,-41,7,1025,1610,-1680,-490,40,58,-609,987.29,
00:10:27.58,-42,6,1024,1540,-1680,-490,37,51,-613,987.29,
00:10:27.60,-38,7,1026,1470,-1610,-560,27,54,-615,987.29,
00:10:27.62,-38,5,1026,1540,-1680,-490,40,52,-610,987.30,
00:10:27.64,-40,6,1026,1540,-1680,-490,37,55,-621,987.30,
00:10:27.66,-43,5,1026,1540,-1680,-560,25,52,-616,987.30,
00:10:27.68,-43,7,1025,1540,-1680,-490,36,57,-613,987.30,
00:10:27.70,-41,7,1026,1540,-1750,-490,30,58,-603,987.30,
00:10:27.72,-41,6,1027,1470,-1680,-560,37,54,-612,987.30,
00:10:27.74,-42,6,1026,1540,-1680,-560,34,48,-609,987.30,
00:10:27.76,-41,7,1026,1540,-1680,-490,31,57,-613,987.30,
00:10:27.78,-42,6,1027,1470,-1680,-490,31,58,-615,987.32,
00:10:27.80,-40,7,1028,1540,-1680,-490,34,57,-612,987.32,
00:10:27.82,-39,8,1028,1540,-1680,-560,31,51,-618,987.33,
00:10:27.84,-43,6,1026,1540,-1680,-490,30,55,-612,987.33,
00:10:27.86,-42,7,1026,1540,-1680,-490,40,52,-613,987.33,
00:10:27.88,-40,7,1026,1540,-1680,-490,30,58,-609,987.33,
00:10:27.90,-40,7,1026,1540,-1680,-490,37,60,-618,987.32,
00:10:27.92,-39,7,1027,1470,-1680,-490,40,52,-616,987.32,
00:10:27.94,-43,6,1026,1540,-1680,-490,27,49,-615,987.30,
00:10:27.96,-42,6,1027,1540,-1680,-560,31,46,-616,987.30,
00:10:27.98,-40,7,1026,1610,-1680,-490,27,52,-609,987.32,
00:10:28.00,-38,8,1027,1540,-1680,-490,34,63,-618,987.32,
00:10:28.02,-38,7,1028,1470,-1610,-560,34,54,-613,987.32,
00:10:28.04,-35,7,1028,1610,-1680,-560,27,54,-616,987.32,
00:10:28.06,-40,7,1026,1470,-1680,-490,31,55,-616,987.32,
00:10:28.08,-38,7,1027,1470,-1680,-490,27,54,-615,987.32,
00:10:28.10,-38,7,1029,1540,-1680,-490,28,54,-604,987.32,
00:10:28.12,-36,8,1027,1540,-1680,-560,40,46,-616,987.32,
00:10:28.14,-38,6,1026,1470,-1680,-560,40,52,-607,987.32,
00:10:28.16,-39,6,1027,1540,-1680,-560,36,46,-606,987.32,
00:10:28.18,-37,7,1025,1540,-1680,-560,21,55,-613,987.30,
00:10:28.20,-37,7,1026,1470,-1680,-560,28,52,-616,987.30,
00:10:28.22,-38,7,1024,1540,-1680,-490,34,55,-609,987.30,
00:10:28.24,-39,6,1024,1540,-1680,-490,37,58,-609,987.30,
00:10:28.26,-41,7,1025,1470,-1750,-560,36,57,-613,987.32,
00:10:28.28,-42,5,1024,1470,-1680,-490,40,60,-610,987.32,
00:10:28.30,-37,7,1025,1540,-1680,-560,33,52,-610,987.32,
00:10:28.32,-38,7,1025,1540,-1680,-560,31,58,-615,987.30,
00:10:28.34,-40,7,1024,1540,-1680,-560,36,61,-610,987.30,
00:10:28.36,-43,6,1024,1470,-1680,-490,19,48,-607,987.30,
00:10:28.38,-41,7,1024,1540,-1680,-490,33,57,-612,987.30,
00:10:28.40,-42,7,1024,1540,-1680,-490,22,54,-619,987.30,
00:10:28.42,-41,6,1024,1470,-1680,-490,31,51,-615,987.30,
00:10:28.44,-42,6,1024,1470,-1680,-490,36,60,-610,987.29,
00:10:28.46,-43,7,1024,1540,-1680,-490,21,58,-604,987.29,
00:10:28.48,-42,7,1024,1540,-1750,-490,34,51,-607,987.30,
00:10:28.50,-41,8,1024,1540,-1750,-490,30,58,-603,987.30,
00:10:28.52,-39,7,1023,1610,-1680,-490,31,54,-609,987.30,
00:10:28.54,-43,6,1023,1470,-1680,-490,33,55,-610,987.30,
00:10:28.56,-43,7,1024,1540,-1680,-490,34,55,-613,987.30,
00:10:28.58,-42,8,1024,1610,-1680,-560,37,51,-604,987.30,
00:10:28.60,-38,7,1025,1540,-1680,-490,30,49,-612,987.29,
00:10:28.62,-39,7,1026,1540,-1680,-560,27,51,-609,987.29,
00:10:28.64,-36,7,1024,1540,-1680,-560,27,52,-609,987.30,
00:10:28.66,-42,7,1025,1470,-1680,-490,31,45,-604,987.30,
00:10:28.68,-40,6,1027,1540,-1680,-490,30,54,-610,987.29,
00:10:28.70,-38,8,1026,1610,-1680,-490,24,55,-606,987.29,
00:10:28.72,-36,6,1026,1540,-1680,-560,30,60,-609,987.30,
00:10:28.74,-37,6,1027,1540,-1680,-490,36,52,-604,987.30,
00:10:28.76,-38,6,1025,1540,-1680,-560,36,58,-612,987.29,
00:10:28.78,-38,7,1026,1540,-1680,-490,31,57,-613,987.29,
00:10:28.80,-37,7,1026,1610,-1680,-560,31,49,-612,987.29,
00:10:28.82,-36,6,1027,1540,-1680,-560,34,54,-616,987.29,
00:10:28.84,-38,6,1028,1610,-1680,-560,28,51,-607,987.28,
00:10:28.86,-39,6,1026,1540,-1680,-490,30,51,-615,987.28,
00:10:28.88,-41,6,1026,1470,-1680,-560,33,49,-616,987.28,
00:10:28.90,-36,7,1028,1540,-1680,-490,27,54,-615,987.28,
00:10:28.92,-36,7,1028,1470,-1610,-490,30,55,-613,987.29,
00:10:28.94,-39,7,1028,1610,-1680,-560,34,51,-613,987.29,
00:10:28.96,-40,6,1028,1540,-1680,-560,30,58,-607,987.28,
00:10:28.98,-42,6,1028,1610,-1680,-490,36,58,-619,987.28,
00:10:29.00,-37,6,1029,1470,-1610,-490,31,54,-612,987.28,
00:10:29.02,-38,6,1027,1540,-1680,-560,36,57,-615,987.28,
00:10:29.04,-40,6,1028,1470,-1680,-560,36,51,-613,987.29,
00:10:29.06,-41,5,1028,1540,-1680,-490,34,54,-612,987.29,
00:10:29.08,-42,6,1028,1610,-1750,-490,34,57,-616,987.29,
00:10:29.10,-41,7,1028,1470,-1680,-490,33,54,-612,987.29,
00:10:29.12,-39,6,1030,1610,-1680,-560,34,54,-607,987.28,
00:10:29.14,-41,6,1028,1540,-1680,-490,34,49,-618,987.28,
00:10:29.16,-41,7,1029,1540,-1680,-490,31,57,-616,987.29,
00:10:29.18,-43,6,1028,1610,-1680,-490,31,57,-600,987.29,
00:10:29.20,-41,7,1028,1540,-1680,-490,39,48,-615,987.28,
00:10:29.22,-40,7,1028,1470,-1680,-490,31,52,-613,987.28,
00:10:29.24,-41,6,1028,1610,-1680,-490,30,60,-597,987.28,
00:10:29.26,-42,7,1027,1540,-1680,-490,30,52,-606,987.28,
00:10:29.28,-41,6,1025,1540,-1680,-490,27,58,-607,987.29,
00:10:29.30,-40,7,1027,1610,-1750,-490,30,54,-609,987.29,
00:10:29.32,-40,7,1028,1540,-1680,-490,22,55,-610,987.28,
00:10:29.34,-37,6,1028,1540,-1680,-560,30,51,-613,987.28,
00:10:29.36,-41,7,1026,1610,-1680,-490,31,55,-610,987.29,
00:10:29.38,-41,7,1026,1540,-1750,-490,33,48,-606,987.29,
00:10:29.40,-40,8,1027,1540,-1680,-490,28,52,-601,987.29,
00:10:29.42,-37,8,1029,1540,-1680,-560,33,55,-613,987.29,
00:10:29.44,-37,7,1028,1470,-1680,-560,30,54,-607,987.29,
00:10:29.46,-37,7,1028,1540,-1680,-560,36,54,-603,987.29,
00:10:29.48,-40,7,1027,1540,-1680,-490,25,52,-612,987.29,
00:10:29.50,-37,7,1027,1470,-1680,-560,28,58,-607,987.29,
00:10:29.52,-38,7,1027,1540,-1680,-560,34,55,-612,987.29,
00:10:29.54,-36,7,1027,1470,-1680,-560,33,58,-610,987.29,
00:10:29.56,-38,6,1028,1540,-1680,-560,30,52,-607,987.29,
00:10:29.58,-40,7,1027,1540,-1680,-560,28,58,-607,987.29,
00:10:29.60,-38,8,1026,1470,-1680,-560,34,60,-609,987.29,
00:10:29.62,-37,6,1026,1470,-1680,-490,34,57,-612,987.29,
00:10:29.64,-37,7,1025,1540,-1680,-490,34,48,-612,987.29,
00:10:29.66,-39,6,1026,1470,-1680,-490,33,61,-607,987.29,
00:10:29.68,-40,7,1026,1540,-1680,-490,27,43,-607,987.29,
00:10:29.70,-41,7,1025,1610,-1680,-490,36,48,-615,987.29,
00:10:29.72,-37,6,1026,1470,-1680,-560,30,51,-613,987.29,
00:10:29.74,-38,7,1025,1540,-1680,-490,28,54,-610,987.29,
00:10:29.76,-39,6,1025,1470,-1610,-560,31,52,-610,987.29,
00:10:29.78,-41,6,1027,1470,-1680,-490,36,57,-613,987.29,
00:10:29.80,-43,6,1024,1540,-1680,-490,33,60,-609,987.29,
00:10:29.82,-42,8,1023,1540,-1680,-490,34,57,-612,987.29,
00:10:29.84,-39,7,1026,1470,-1680,-560,31,57,-625,987.29,
00:10:29.86,-40,7,1025,1610,-1680,-490,33,49,-609,987.29,
00:10:29.88,-42,6,1025,1540,-1680,-490,30,64,-609,987.29,
00:10:29.90,-42,6,1027,1540,-1680,-490,37,46,-616,987.29,
00:10:29.92,-41,7,1026,1610,-1750,-490,28,49,-604,987.29,
00:10:29.94,-40,6,1026,1470,-1610,-490,28,54,-612,987.29,
00:10:29.96,-41,6,1026,1470,-1680,-490,36,54,-609,987.29,
00:10:29.98,-41,7,1026,1470,-1680,-490,36,58,-609,987.28,
00:10:30.00,-42,6,1025,1470,-1680,-490,30,51,-606,987.28,
00:10:30.02,-41,6,1027,1540,-1680,-490,30,55,-604,987.28,
00:10:30.04,-40,7,1026,1470,-1680,-490,31,55,-609,987.28,
00:10:30.06,-41,6,1026,1540,-1680,-490,31,52,-607,987.28,
00:10:30.08,-43,6,1024,1470,-1750,-490,25,54,-609,987.28,
00:10:30.10,-41,7,1027,1610,-1680,-490,27,61,-609,987.29,
00:10:30.12,-40,8,1026,1540,-1750,-490,28,48,-612,987.29,
00:10:30.14,-37,7,1027,1470,-1680,-490,36,58,-615,987.29,
00:10:30.16,-38,7,1029,1540,-1680,-490,27,51,-610,987.29,
00:10:30.18,-42,7,1026,1540,-1750,-490,30,57,-607,987.28,
00:10:30.20,-40,7,1027,1540,-1680,-490,34,61,-609,987.28,
00:10:30.22,-39,7,1027,1610,-1680,-560,33,55,-612,987.29,
00:10:30.24,-37,7,1028,1540,-1680,-490,42,45,-615,987.29,
00:10:30.26,-37,7,1027,1540,-1680,-560,34,51,-612,987.28,
00:10:30.28,-37,6,1027,1540,-1680,-560,42,60,-612,987.28,
00:10:30.30,-39,8,1027,1540,-1680,-490,28,60,-619,987.28,
00:10:30.32,-38,7,1027,1540,-1680,-490,33,48,-619,987.28,
00:10:30.34,-37,8,1027,1540,-1680,-560,40,48,-609,987.28,
00:10:30.36,-37,7,1027,1540,-1680,-560,40,52,-607,987.28,
00:10:30.38,-39,6,1028,1540,-1680,-560,36,63,-612,987.28,
00:10:30.40,-39,6,1027,1610,-1680,-490,33,54,-612,987.28,
00:10:30.42,-38,7,1028,1470,-1680,-490,34,45,-615,987.28,
00:10:30.44,-38,6,1028,1470,-1610,-560,21,46,-609,987.28,
00:10:30.46,-38,7,1028,1540,-1680,-560,31,58,-615,987.28,
00:10:30.48,-38,6,1028,1610,-1680,-490,30,58,-604,987.28,
00:10:30.50,-41,7,1028,1610,-1680,-490,30,54,-606,987.28,
00:10:30.52,-42,6,1028,1540,-1680,-420,31,58,-610,987.28,
00:10:30.54,-37,7,1030,1470,-1680,-560,31,57,-610,987.29,
00:10:30.56,-38,6,1028,1540,-1680,-560,24,48,-607,987.29,
00:10:30.58,-41,6,1028,1540,-1680,-490,30,54,-606,987.29,
00:10:30.60,-42,7,1028,1470,-1680,-490,36,52,-607,987.29,
00:10:30.62,-41,6,1028,1610,-1680,-490,30,49,-606,987.29,
00:10:30.64,-41,7,1028,1540,-1680,-490,33,55,-603,987.29,
00:10:30.66,-40,5,1029,1540,-1680,-490,31,61,-603,987.29,
00:10:30.68,-42,7,1028,1540,-1680,-490,34,48,-612,987.29,
00:10:30.70,-43,6,1029,1540,-1680,-560,27,52,-613,987.29,
00:10:30.72,-41,6,1030,1610,-1680,-490,28,58,-613,987.29,
00:10:30.74,-40,7,1029,1540,-1750,-560,36,51,-612,987.28,
00:10:30.76,-37,8,1030,1470,-1680,-560,40,54,-618,987.28,
00:10:30.78,-43,6,1029,1610,-1680,-490,19,57,-613,987.28,
00:10:30.80,-41,6,1030,1540,-1750,-490,36,58,-609,987.28,
00:10:30.82,-40,7,1029,1610,-1750,-560,31,52,-615,987.28,
00:10:30.84,-38,7,1031,1540,-1680,-560,25,57,-613,987.28,
00:10:30.86,-37,6,1031,1540,-1680,-490,34,49,-615,987.28,
00:10:30.88,-37,7,1030,1540,-1680,-490,28,61,-613,987.28,
00:10:30.90,-41,7,1029,1540,-1680,-490,30,57,-612,987.27,
00:10:30.92,-38,8,1030,1540,-1680,-560,34,57,-609,987.27,
00:10:30.94,-39,7,1029,1540,-1680,-560,25,54,-607,987.27,
00:10:30.96,-37,6,1029,1470,-1680,-560,34,51,-610,987.27,
00:10:30.98,-36,7,1029,1540,-1680,-490,40,57,-607,987.27,
00:10:31.00,-38,8,1028,1470,-1680,-560,30,55,-610,987.27,
00:10:31.02,-38,9,1028,1610,-1680,-560,31,45,-609,987.27,
00:10:31.04,-37,6,1028,1540,-1680,-560,31,51,-615,987.27,
00:10:31.06,-38,6,1029,1610,-1680,-560,33,57,-613,987.26,
00:10:31.08,-39,7,1028,1610,-1680,-490,31,48,-604,987.26,
00:10:31.10,-40,7,1029,1540,-1680,-490,36,55,-618,987.27,
00:10:31.12,-37,7,1030,1540,-1610,-560,22,48,-616,987.27,
00:10:31.14,-37,6,1030,1540,-1680,-490,31,51,-610,987.27,
00:10:31.16,-39,6,1029,1540,-1680,-490,36,54,-607,987.27,
00:10:31.18,-40,6,1029,1540,-1680,-560,39,52,-615,987.27,
00:10:31.20,-41,7,1028,1610,-1680,-560,27,45,-604,987.28,
00:10:31.22,-43,7,1029,1540,-1680,-490,30,57,-610,987.28,
00:10:31.24,-38,6,1031,1540,-1610,-490,27,60,-607,987.27,
00:10:31.26,-40,6,1029,1540,-1680,-560,43,57,-607,987.27,
00:10:31.28,-42,6,1030,1540,-1680,-490,39,52,-613,987.27,
00:10:31.30,-42,7,1031,1610,-1680,-490,27,52,-609,987.27,
00:10:31.32,-41,8,1030,1540,-1680,-490,33,64,-604,987.28,
00:10:31.34,-40,7,1030,1540,-1680,-560,18,57,-610,987.28,
00:10:31.36,-41,6,1029,1610,-1680,-560,33,60,-610,987.28,
00:10:31.38,-42,7,1029,1470,-1680,-490,25,52,-613,987.28,
00:10:31.40,-42,7,1029,1540,-1680,-490,22,55,-609,987.27,
00:10:31.42,-39,7,1029,1610,-1680,-420,22,51,-607,987.27,
00:10:31.44,-38,7,1029,1540,-1680,-560,21,55,-606,987.28,
00:10:31.46,-38,7,1030,1540,-1680,-560,21,57,-607,987.28,
00:10:31.48,-41,7,1029,1540,-1750,-490,30,54,-610,987.28,
00:10:31.50,-40,7,1028,1540,-1680,-490,36,52,-607,987.28,
00:10:31.52,-39,8,1029,1540,-1680,-490,27,54,-607,987.28,
00:10:31.54,-38,8,1029,1540,-1680,-560,30,49,-606,987.28,
00:10:31.56,-37,8,1029,1540,-1680,-560,37,45,-604,987.28,
00:10:31.58,-37,7,1030,1540,-1680,-560,36,64,-609,987.28,
00:10:31.60,-40,6,1029,1470,-1680,-490,30,58,-610,987.28,
00:10:31.62,-36,8,1028,1540,-1680,-490,39,54,-610,987.28,
00:10:31.64,-37,7,1029,1470,-1680,-560,34,52,-613,987.28,
00:10:31.66,-39,6,1029,1470,-1680,-560,34,55,-606,987.28,
00:10:31.68,-39,6,1028,1610,-1680,-560,34,51,-607,987.27,
00:10:31.70,-40,7,1026,1540,-1680,-490,33,43,-607,987.27,
00:10:31.72,-36,7,1028,1540,-1680,-560,25,58,-597,987.28,
00:10:31.74,-37,7,1026,1610,-1680,-560,28,57,-613,987.28,
00:10:31.76,-38,7,1026,1540,-1680,-560,30,52,-612,987.28,
00:10:31.78,-40,6,1027,1540,-1680,-560,30,54,-607,987.28,
00:10:31.80,-40,6,1027,1540,-1750,-490,30,55,-616,987.28,
00:10:31.82,-43,7,1024,1540,-1680,-490,31,55,-606,987.28,
00:10:31.84,-38,7,1027,1470,-1680,-560,27,49,-606,987.28,
00:10:31.86,-39,6,1026,1540,-1680,-560,31,48,-610,987.28,
00:10:31.88,-41,7,1026,1540,-1680,-490,31,55,-601,987.28,
00:10:31.90,-43,7,1026,1470,-1680,-490,37,52,-615,987.28,
00:10:31.92,-42,6,1026,1470,-1680,-490,31,46,-609,987.27,
00:10:31.94,-39,6,1026,1540,-1610,-560,34,48,-607,987.27,
00:10:31.96,-40,6,1026,1470,-1680,-490,34,55,-609,987.27,
00:10:31.98,-42,5,1025,1540,-1680,-490,27,58,-609,987.27,
00:10:32.00,-42,6,1026,1540,-1750,-490,22,60,-612,987.27,
00:10:32.02,-41,7,1025,1540,-1750,-490,21,55,-612,987.27,
00:10:32.04,-40,7,1025,1540,-1680,-490,31,51,-604,987.27,
00:10:32.06,-41,6,1025,1540,-1680,-490,30,55,-610,987.27,
00:10:32.08,-43,7,1025,1540,-1680,-420,25,57,-604,987.28,
00:10:32.10,-43,7,1025,1540,-1750,-490,30,55,-612,987.28,
00:10:32.12,-41,7,1024,1540,-1680,-490,28,51,-604,987.27,
00:10:32.14,-39,7,1026,1540,-1680,-490,31,49,-612,987.27,
00:10:32.16,-37,7,1026,1540,-1680,-490,25,49,-606,987.26,
00:10:32.18,-42,6,1024,1540,-1680,-490,37,58,-612,987.26,
00:10:32.20,-42,7,1025,1540,-1680,-560,36,58,-619,987.26,
00:10:32.22,-40,7,1026,1540,-1680,-490,25,54,-606,987.26,
00:10:32.24,-38,7,1026,1610,-1680,-560,30,60,-606,987.26,
00:10:32.26,-37,7,1026,1540,-1680,-560,33,57,-615,987.26,
00:10:32.28,-37,6,1026,1540,-1680,-560,22,60,-613,987.26,
00:10:32.30,-42,7,1025,1470,-1750,-490,31,49,-609,987.26,
00:10:32.32,-40,7,1026,1540,-1680,-490,36,61,-610,987.26,
00:10:32.34,-37,8,1025,1540,-1680,-490,34,55,-604,987.26,
00:10:32.36,-37,7,1027,1470,-1610,-490,24,49,-607,987.25,
00:10:32.38,-37,7,1027,1610,-1680,-560,25,52,-615,987.25,
00:10:32.40,-38,7,1027,1540,-1680,-560,34,46,-607,987.25,
00:10:32.42,-39,7,1026,1540,-1680,-490,28,49,-615,987.25,
00:10:32.44,-37,8,1026,1540,-1610,-490,25,54,-615,987.25,
00:10:32.46,-37,6,1027,1540,-1680,-490,37,51,-619,987.25,
00:10:32.48,-37,6,1027,1540,-1680,-560,34,55,-609,987.26,
00:10:32.50,-39,5,1027,1470,-1680,-560,22,54,-604,987.26,
00:10:32.52,-40,6,1027,1540,-1750,-490,30,52,-610,987.26,
00:10:32.54,-38,7,1028,1540,-1680,-560,27,48,-606,987.26,
00:10:32.56,-38,7,1027,1470,-1680,-490,37,48,-612,987.26,
00:10:32.58,-38,6,1027,1540,-1680,-490,28,52,-615,987.27,
00:10:32.60,-41,6,1026,1540,-1750,-490,34,54,-613,987.27,
00:10:32.62,-43,6,1026,1470,-1680,-560,24,51,-618,987.28,
00:10:32.64,-43,6,1026,1540,-1680,-490,30,57,-610,987.28,
00:10:32.66,-38,6,1027,1540,-1610,-560,25,51,-612,987.28,
00:10:32.68,-40,6,1027,1470,-1680,-490,42,58,-600,987.28,
00:10:32.70,-41,7,1026,1540,-1680,-490,37,46,-606,987.28,
00:10:32.72,-42,6,1026,1540,-1680,-490,33,60,-607,987.28,
00:10:32.74,-42,6,1026,1540,-1680,-560,30,48,-610,987.28,
00:10:32.76,-40,7,1026,1540,-1680,-490,28,49,-604,987.28,
00:10:32.78,-41,7,1025,1610,-1750,-490,37,51,-604,987.27,
00:10:32.80,-42,6,1025,1540,-1680,-560,31,52,-616,987.27,
00:10:32.82,-42,7,1025,1610,-1680,-490,34,54,-610,987.26,
00:10:32.84,-42,7,1026,1540,-1680,-490,30,48,-613,987.26,
00:10:32.86,-38,7,1026,1540,-1680,-490,30,51,-613,987.27,
00:10:32.88,-37,8,1027,1540,-1680,-490,28,51,-604,987.27,
00:10:32.90,-42,6,1026,1470,-1680,-490,31,60,-613,987.26,
00:10:32.92,-41,7,1026,1540,-1680,-490,22,54,-610,987.26,
00:10:32.94,-39,7,1027,1540,-1680,-560,33,58,-610,987.26,
00:10:32.96,-37,7,1028,1540,-1680,-490,30,51,-603,987.26,
00:10:32.98,-37,6,1027,1540,-1680,-560,28,46,-603,987.26,
00:10:33.00,-41,8,1027,1540,-1680,-490,30,55,-609,987.26,
00:10:33.02,-40,7,1028,1470,-1680,-490,31,46,-612,987.26,
00:10:33.04,-38,6,1028,1540,-1680,-560,22,52,-604,987.26,
00:10:33.06,-36,8,1028,1540,-1680,-560,36,58,-610,987.26,
00:10:33.08,-36,6,1029,1540,-1610,-490,28,57,-606,987.26,
00:10:33.10,-39,7,1029,1610,-1680,-490,22,54,-613,987.26,
00:10:33.12,-38,7,1029,1470,-1680,-490,37,52,-609,987.26,
00:10:33.14,-36,7,1029,1540,-1680,-560,30,42,-609,987.26,
00:10:33.16,-36,7,1028,1540,-1680,-560,36,57,-616,987.26,
00:10:33.18,-39,6,1030,1470,-1680,-490,33,57,-607,987.26,
00:10:33.20,-39,6,1030,1540,-1680,-490,33,54,-609,987.26,
00:10:33.22,-40,7,1027,1540,-1680,-490,31,57,-610,987.26,
00:10:33.24,-36,7,1029,1470,-1610,-560,30,57,-622,987.26,
00:10:33.26,-38,6,1030,1540,-1610,-490,37,48,-613,987.26,
00:10:33.28,-38,6,1029,1540,-1680,-490,34,55,-609,987.26,
00:10:33.30,-41,6,1028,1470,-1680,-490,34,49,-606,987.26,
00:10:33.32,-42,6,1028,1540,-1680,-490,34,52,-615,987.26,
00:10:33.34,-41,7,1027,1540,-1680,-490,31,52,-610,987.26,
00:10:33.36,-38,6,1028,1540,-1680,-490,31,57,-609,987.26,
00:10:33.38,-42,6,1029,1470,-1680,-560,37,51,-612,987.27,
00:10:33.40,-42,7,1028,1540,-1750,-490,37,48,-609,987.27,
00:10:33.42,-42,7,1028,1540,-1680,-490,28,54,-609,987.27,
00:10:33.44,-41,8,1028,1540,-1680,-490,36,57,-612,987.27,
00:10:33.46,-39,7,1030,1540,-1680,-490,33,58,-616,987.26,
00:10:33.48,-41,7,1027,1540,-1680,-490,28,61,-604,987.26,
00:10:33.50,-43,6,1028,1540,-1750,-490,31,52,-610,987.25,
00:10:33.52,-42,8,1029,1470,-1680,-490,25,51,-604,987.25,
00:10:33.54,-39,7,1027,1540,-1680,-490,31,57,-615,987.26,
00:10:33.56,-39,7,1028,1470,-1680,-560,31,52,-609,987.26,
00:10:33.58,-37,8,1030,1540,-1680,-560,33,45,-607,987.26,
00:10:33.60,-40,7,1027,1540,-1680,-490,28,60,-607,987.26,
00:10:33.62,-40,8,1028,1540,-1680,-490,25,58,-610,987.26,
00:10:33.64,-39,6,1028,1540,-1750,-490,30,48,-606,987.26,
00:10:33.66,-37,7,1028,1540,-1680,-560,34,54,-610,987.26,
00:10:33.68,-37,7,1027,1540,-1680,-560,27,54,-613,987.26,
00:10:33.70,-36,6,1029,1470,-1680,-490,36,58,-604,987.26,
00:10:33.72,-39,8,1027,1540,-1680,-490,28,54,-603,987.26,
00:10:33.74,-38,8,1028,1540,-1680,-560,28,54,-610,987.26,
00:10:33.76,-35,6,1028,1540,-1680,-560,30,57,-603,987.26,
00:10:33.78,-37,7,1027,1540,-1680,-560,31,57,-610,987.26,
00:10:33.80,-38,6,1028,1540,-1680,-490,30,57,-610,987.26,
00:10:33.82,-41,6,1027,1610,-1680,-490,22,55,-610,987.27,
00:10:33.84,-36,7,1028,1540,-1680,-560,31,58,-607,987.27,
00:10:33.86,-36,7,1028,1540,-1680,-560,33,58,-609,987.27,
00:10:33.88,-38,6,1025,1540,-1680,-490,34,57,-609,987.27,
00:10:33.90,-39,6,1025,1470,-1680,-560,34,48,-607,987.28,
00:10:33.92,-41,6,1026,1540,-1680,-490,30,58,-613,987.28,
00:10:33.94,-37,6,1027,1540,-1680,-560,43,48,-607,987.28,
00:10:33.96,-37,7,1025,1540,-1610,-560,30,54,-607,987.28,
00:10:33.98,-39,6,1026,1470,-1680,-560,33,51,-610,987.28,
00:10:34.00,-41,7,1026,1540,-1680,-560,18,49,-610,987.28,
00:10:34.02,-41,6,1026,1540,-1680,-490,33,52,-615,987.28,
00:10:34.04,-43,6,1024,1540,-1750,-490,36,52,-609,987.27,
00:10:34.06,-39,7,1026,1540,-1680,-560,30,61,-613,987.27,
00:10:34.08,-40,6,1026,1540,-1680,-490,30,55,-606,987.28,
00:10:34.10,-41,7,1023,1540,-1680,-490,36,55,-615,987.28,
00:10:34.12,-41,7,1024,1470,-1680,-490,34,60,-609,987.27,
00:10:34.14,-42,7,1024,1540,-1680,-490,30,64,-610,987.27,
00:10:34.16,-40,7,1024,1540,-1680,-420,28,57,-616,987.26,
00:10:34.18,-41,7,1023,1540,-1680,-490,33,49,-612,987.26,
00:10:34.20,-42,7,1024,1540,-1680,-490,34,51,-607,987.26,
00:10:34.22,-42,7,1024,1610,-1680,-490,39,55,-606,987.26,
00:10:34.24,-41,6,1024,1540,-1680,-490,33,49,-606,987.26,
00:10:34.26,-40,7,1024,1470,-1680,-560,39,54,-603,987.26,
00:10:34.28,-37,8,1024,1540,-1680,-490,30,55,-615,987.27,
00:10:34.30,-41,7,1024,1540,-1680,-490,36,55,-616,987.27,
00:10:34.32,-42,7,1024,1470,-1750,-490,25,55,-600,987.26,
00:10:34.34,-39,6,1025,1540,-1680,-490,34,49,-613,987.26,
00:10:34.36,-38,7,1025,1540,-1680,-560,25,55,-607,987.26,
00:10:34.38,-38,8,1026,1540,-1680,-560,33,66,-615,987.26,
00:10:34.40,-35,7,1025,1540,-1680,-490,28,57,-612,987.27,
00:10:34.42,-40,7,1025,1400,-1680,-490,33,54,-606,987.27,
00:10:34.44,-39,6,1027,1540,-1680,-560,27,51,-613,987.26,
00:10:34.46,-37,7,1026,1610,-1680,-490,36,54,-610,987.26,
00:10:34.48,-35,8,1026,1540,-1680,-560,33,57,-615,987.26,
00:10:34.50,-38,6,1028,1400,-1680,-560,30,52,-612,987.26,
00:10:34.52,-39,6,1028,1610,-1680,-560,24,48,-610,987.26,
00:10:34.54,-38,6,1026,1540,-1680,-560,27,57,-615,987.26,
00:10:34.56,-38,6,1027,1470,-1680,-560,28,57,-610,987.27,
00:10:34.58,-37,7,1028,1610,-1680,-560,27,52,-612,987.27,
00:10:34.60,-39,6,1027,1540,-1680,-560,28,42,-615,987.27,
00:10:34.62,-42,6,1028,1400,-1680,-490,30,52,-612,987.27,
00:10:34.64,-41,5,1027,1610,-1750,-490,39,49,-610,987.27,
00:10:34.66,-37,7,1027,1540,-1680,-560,37,58,-604,987.27,
00:10:34.68,-39,6,1027,1540,-1680,-560,31,49,-607,987.27,
00:10:34.70,-39,6,1027,1610,-1680,-560,30,57,-601,987.27,
00:10:34.72,-41,7,1026,1540,-1680,-490,34,48,-613,987.26,
00:10:34.74,-43,6,1026,1540,-1750,-560,25,51,-607,987.26,
00:10:34.76,-41,8,1027,1610,-1680,-490,34,55,-603,987.25,
00:10:34.78,-39,7,1027,1540,-1750,-490,34,54,-610,987.25,
00:10:34.80,-40,7,1026,1610,-1680,-560,34,58,-606,987.25,
00:10:34.82,-42,6,1026,1470,-1680,-560,36,58,-607,987.25,
00:10:34.84,-43,6,1027,1540,-1680,-490,31,54,-613,987.25,
00:10:34.86,-39,7,1025,1680,-1750,-490,33,54,-601,987.25,
00:10:34.88,-40,6,1026,1400,-1680,-560,36,58,-603,987.25,
00:10:34.90,-41,8,1026,1540,-1680,-490,24,54,-607,987.25,
00:10:34.92,-43,7,1024,1540,-1680,-560,28,61,-610,987.26,
00:10:34.94,-42,6,1027,1540,-1610,-490,39,52,-607,987.26,
00:10:34.96,-38,7,1026,1540,-1680,-420,31,52,-601,987.26,
00:10:34.98,-38,6,1026,1540,-1680,-560,37,52,-618,987.26,
00:10:35.00,-43,6,1029,1470,-1680,-490,36,58,-609,987.26,
00:10:35.02,-41,7,1027,1610,-1680,-490,30,51,-603,987.26,
00:10:35.04,-40,8,1027,1470,-1680,-490,33,57,-610,987.26,
00:10:35.06,-39,8,1029,1540,-1680,-560,36,52,-606,987.26,
00:10:35.08,-36,8,1027,1680,-1680,-490,25,54,-613,987.26,
00:10:35.10,-36,7,1027,1540,-1680,-560,40,54,-607,987.26,
00:10:35.12,-40,6,1028,1540,-1750,-490,36,57,-607,987.26,
00:10:35.14,-38,8,1028,1540,-1680,-490,30,58,-612,987.26,
00:10:35.16,-36,7,1028,1540,-1680,-560,33,63,-610,987.27,
00:10:35.18,-37,6,1028,1540,-1680,-560,28,52,-612,987.27,
00:10:35.20,-36,7,1028,1610,-1680,-560,31,58,-604,987.27,
00:10:35.22,-38,6,1028,1470,-1680,-560,30,46,-607,987.27,
00:10:35.24,-39,5,1028,1540,-1680,-560,28,57,-615,987.27,
00:10:35.26,-32,9,1028,1610,-1750,-490,22,52,-615,987.27,
00:10:35.28,-39,8,1027,1540,-1680,-560,37,57,-610,987.27,
00:10:35.30,-38,6,1029,1400,-1610,-560,30,57,-619,987.27,
00:10:35.32,-40,7,1027,1680,-1750,-490,31,45,-607,987.26,
00:10:35.34,-41,8,1025,1610,-1750,-490,25,55,-601,987.26,
00:10:35.36,-37,6,1030,1540,-1680,-560,34,51,-609,987.26,
00:10:35.38,-36,7,1028,1680,-1680,-490,33,54,-613,987.26,
00:10:35.40,-39,7,1027,1470,-1680,-560,34,51,-610,987.26,
00:10:35.42,-40,6,1028,1470,-1680,-560,33,49,-607,987.26,
00:10:35.44,-41,7,1026,1680,-1680,-490,28,60,-610,987.26,
00:10:35.46,-41,7,1026,1540,-1680,-560,27,49,-613,987.26,
00:10:35.48,-39,6,1026,1610,-1680,-490,24,57,-610,987.26,
00:10:35.50,-39,5,1026,1610,-1610,-490,33,55,-607,987.26,
00:10:35.52,-42,5,1027,1470,-1680,-560,43,57,-613,987.26,
00:10:35.54,-42,5,1027,1540,-1680,-490,30,58,-604,987.26,
00:10:35.56,-42,7,1025,1610,-1680,-420,30,63,-616,987.26,
00:10:35.58,-41,7,1025,1540,-1680,-560,33,51,-612,987.27,
00:10:35.60,-40,8,1026,1540,-1680,-490,30,58,-607,987.27,
00:10:35.62,-42,8,1025,1540,-1680,-490,25,48,-613,987.27,
00:10:35.64,-42,7,1026,1470,-1680,-490,39,57,-609,987.27,
00:10:35.66,-40,8,1025,1540,-1680,-490,31,54,-604,987.28,
00:10:35.68,-41,9,1027,1540,-1680,-560,31,49,-609,987.28,
00:10:35.70,-38,6,1030,1400,-1680,-490,28,57,-606,987.28,
00:10:35.72,-43,7,1025,1680,-1680,-490,34,51,-607,987.28,
00:10:35.74,-43,5,1028,1330,-1750,-560,37,52,-607,987.27,
00:10:35.76,-40,6,1028,1680,-1750,-490,39,54,-613,987.27,
00:10:35.78,-37,10,1025,1680,-1680,-490,42,55,-613,987.27,
00:10:35.80,-39,6,1030,1260,-1610,-560,30,52,-612,987.27,
00:10:35.82,-37,7,1029,1680,-1680,-490,33,58,-606,987.27,
00:10:35.84,-41,8,1026,1470,-1750,-560,40,58,-618,987.27,
00:10:35.86,-44,6,1029,1540,-1680,-560,31,54,-612,987.26,
00:10:35.88,-37,7,1028,1680,-1680,-420,33,51,-609,987.26,
00:10:35.90,-39,7,1027,1540,-1610,-560,28,57,-601,987.27,
00:10:35.92,-37,6,1030,1400,-1680,-560,25,57,-607,987.27,
00:10:35.94,-36,6,1026,1680,-1750,-420,34,55,-616,987.26,
00:10:35.96,-41,8,1027,1470,-1680,-560,34,49,-610,987.26,
00:10:35.98,-39,7,1028,1470,-1680,-560,33,58,-607,987.26,
00:10:36.00,-36,8,1026,1680,-1680,-420,33,42,-607,987.26,
00:10:36.02,-36,7,1027,1540,-1680,-560,36,52,-604,987.26,
00:10:36.04,-38,6,1029,1540,-1610,-560,36,52,-612,987.26,
00:10:36.06,-38,7,1027,1610,-1750,-490,31,55,-610,987.26,
00:10:36.08,-39,8,1027,1540,-1680,-490,27,60,-606,987.26,
00:10:36.10,-37,6,1028,1470,-1680,-560,18,60,-612,987.27,
00:10:36.12,-38,7,1027,1610,-1680,-560,28,49,-607,987.27,
00:10:36.14,-38,6,1026,1610,-1680,-490,28,45,-604,987.26,
00:10:36.16,-40,7,1026,1610,-1750,-560,36,54,-610,987.26,
00:10:36.18,-37,7,1027,1470,-1680,-560,27,55,-619,987.26,
00:10:36.20,-37,7,1026,1540,-1680,-560,27,49,-604,987.26,
00:10:36.22,-37,7,1026,1610,-1680,-560,33,49,-609,987.26,
00:10:36.24,-39,6,1026,1540,-1680,-560,28,45,-612,987.26,
00:10:36.26,-40,6,1025,1470,-1680,-490,34,46,-606,987.27,
00:10:36.28,-41,6,1025,1540,-1680,-490,36,55,-601,987.27,
00:10:36.30,-38,7,1027,1470,-1680,-630,34,54,-609,987.27,
00:10:36.32,-37,6,1027,1470,-1750,-490,36,61,-615,987.27,
00:10:36.34,-39,8,1023,1680,-1680,-630,31,61,-610,987.27,
00:10:36.36,-39,6,1026,1330,-1610,-490,30,55,-615,987.27,
00:10:36.38,-45,6,1026,1540,-1680,-490,31,52,-615,987.27,
00:10:36.40,-41,7,1024,1750,-1750,-490,31,46,-613,987.27,
00:10:36.42,-38,5,1026,1470,-1680,-560,34,51,-612,987.27,
00:10:36.44,-40,6,1025,1680,-1680,-490,25,60,-609,987.27,
00:10:36.46,-42,7,1024,1540,-1680,-490,31,54,-604,987.27,
00:10:36.48,-42,5,1025,1470,-1680,-560,36,57,-613,987.27,
00:10:36.50,-42,7,1025,1610,-1750,-490,28,52,-610,987.27,
00:10:36.52,-41,7,1023,1470,-1680,-490,31,52,-616,987.27,
00:10:36.54,-41,8,1026,1540,-1680,-490,28,57,-613,987.27,
00:10:36.56,-42,7,1026,1540,-1680,-490,34,46,-612,987.27,
00:10:36.58,-42,8,1026,1540,-1750,-490,27,49,-615,987.26,
00:10:36.60,-41,8,1025,1610,-1680,-490,31,45,-612,987.26,
00:10:36.62,-41,6,1025,1540,-1680,-490,45,45,-609,987.25,
00:10:36.64,-39,7,1027,1540,-1680,-490,31,55,-609,987.25,
00:10:36.66,-41,7,1026,1540,-1750,-490,30,49,-613,987.25,
00:10:36.68,-42,7,1024,1540,-1680,-490,33,58,-604,987.25,
00:10:36.70,-41,5,1026,1470,-1750,-490,33,48,-606,987.25,
00:10:36.72,-38,8,1025,1540,-1680,-490,36,52,-613,987.25,
00:10:36.74,-41,7,1026,1540,-1680,-560,30,57,-607,987.25,
00:10:36.76,-38,7,1027,1540,-1680,-490,27,58,-613,987.25,
00:10:36.78,-40,8,1024,1540,-1680,-490,27,57,-606,987.25,
00:10:36.80,-43,7,1027,1400,-1680,-560,34,60,-597,987.25,
00:10:36.82,-40,6,1027,1610,-1680,-420,33,57,-604,987.25,
00:10:36.84,-38,8,1026,1610,-1680,-560,39,49,-609,987.25,
00:10:36.86,-37,7,1026,1610,-1680,-560,31,57,-603,987.25,
00:10:36.88,-36,7,1026,1470,-1680,-560,22,49,-603,987.25,
00:10:36.90,-42,8,1026,1610,-1750,-490,28,55,-604,987.25,
00:10:36.92,-40,8,1026,1540,-1680,-490,37,45,-606,987.27,
00:10:36.94,-38,7,1026,1540,-1680,-490,34,49,-607,987.27,
00:10:36.96,-36,8,1027,1540,-1680,-490,28,58,-603,987.26,
00:10:36.98,-38,6,1025,1540,-1680,-560,31,52,-615,987.26,
00:10:37.00,-40,8,1025,1610,-1680,-490,39,54,-604,987.25,
00:10:37.02,-39,8,1027,1540,-1680,-490,42,55,-607,987.25,
00:10:37.04,-38,7,1026,1540,-1680,-490,39,49,-606,987.25,
00:10:37.06,-37,8,1026,1540,-1680,-560,19,57,-606,987.25,
00:10:37.08,-37,7,1026,1540,-1680,-560,33,54,-601,987.25,
00:10:37.10,-38,7,1026,1540,-1610,-490,39,58,-610,987.25,
00:10:37.12,-38,7,1025,1540,-1680,-490,31,64,-612,987.25,
00:10:37.14,-39,6,1026,1540,-1610,-490,39,51,-609,987.25,
00:10:37.16,-36,7,1025,1610,-1610,-490,34,49,-610,987.26,
00:10:37.18,-35,8,1025,1470,-1680,-560,33,58,-606,987.26,
00:10:37.20,-39,6,1026,1470,-1680,-560,31,49,-609,987.25,
00:10:37.22,-40,6,1025,1540,-1680,-490,33,55,-604,987.25,
00:10:37.24,-35,7,1025,1540,-1680,-490,25,49,-603,987.25,
00:10:37.26,-37,7,1026,1470,-1680,-560,27,52,-609,987.25,
00:10:37.28,-38,7,1027,1540,-1680,-490,33,58,-607,987.25,
00:10:37.30,-38,6,1025,1540,-1680,-490,27,55,-607,987.25,
00:10:37.32,-39,6,1026,1470,-1680,-560,27,51,-603,987.25,
00:10:37.34,-42,6,1025,1540,-1680,-560,30,55,-616,987.25,
00:10:37.36,-37,7,1026,1540,-1610,-490,37,55,-609,987.26,
00:10:37.38,-37,5,1025,1540,-1610,-490,31,55,-610,987.26,
00:10:37.40,-38,7,1024,1470,-1680,-490,30,48,-609,987.26,
00:10:37.42,-40,6,1025,1470,-1680,-560,27,49,-603,987.26,
00:10:37.44,-41,7,1026,1540,-1680,-560,34,54,-601,987.26,
00:10:37.46,-42,6,1025,1540,-1680,-490,34,51,-604,987.26,
00:10:37.48,-37,7,1025,1540,-1610,-490,33,61,-601,987.26,
00:10:37.50,-38,6,1026,1540,-1680,-560,31,54,-603,987.26,
00:10:37.52,-42,7,1024,1610,-1680,-490,27,52,-606,987.25,
00:10:37.54,-42,6,1023,1540,-1680,-490,30,57,-604,987.25,
00:10:37.56,-42,7,1024,1470,-1680,-560,33,55,-607,987.25,
00:10:37.58,-40,7,1026,1470,-1680,-490,25,55,-612,987.25,
00:10:37.60,-39,7,1026,1540,-1680,-490,33,54,-610,987.25,
00:10:37.62,-42,6,1024,1610,-1680,-560,34,57,-612,987.25,
00:10:37.64,-42,7,1024,1540,-1680,-490,31,51,-607,987.26,
00:10:37.66,-42,6,1024,1540,-1680,-490,36,48,-606,987.26,
00:10:37.68,-41,7,1024,1540,-1680,-490,30,58,-613,987.26,
00:10:37.70,-38,8,1025,1470,-1680,-490,39,46,-610,987.26,
00:10:37.72,-43,7,1025,1540,-1680,-490,31,60,-612,987.26,
00:10:37.74,-43,7,1025,1540,-1680,-490,31,49,-604,987.26,
00:10:37.76,-42,6,1025,1540,-1750,-490,37,64,-613,987.27,
00:10:37.78,-40,8,1025,1540,-1750,-490,24,52,-613,987.27,
00:10:37.80,-39,8,1025,1470,-1680,-560,37,57,-603,987.26,
00:10:37.82,-37,7,1026,1540,-1680,-560,28,58,-604,987.26,
00:10:37.84,-42,8,1025,1540,-1750,-490,34,58,-610,987.25,
00:10:37.86,-41,7,1025,1540,-1680,-490,30,49,-612,987.25,
00:10:37.88,-39,7,1025,1540,-1680,-490,30,61,-613,987.25,
00:10:37.90,-37,7,1026,1540,-1680,-490,39,48,-600,987.25,
00:10:37.92,-38,6,1027,1540,-1680,-560,27,58,-609,987.26,
00:10:37.94,-36,7,1027,1540,-1680,-490,33,63,-606,987.26,
00:10:37.96,-39,7,1025,1540,-1680,-490,37,48,-613,987.26,
00:10:37.98,-39,7,1026,1540,-1680,-490,31,67,-606,987.26,
00:10:38.00,-37,7,1026,1540,-1680,-560,34,58,-610,987.26,
00:10:38.02,-36,6,1028,1540,-1680,-490,27,51,-612,987.26,
00:10:38.04,-38,6,1027,1540,-1680,-560,34,55,-613,987.26,
00:10:38.06,-40,6,1027,1540,-1680,-490,36,57,-612,987.26,
00:10:38.08,-36,7,1027,1540,-1680,-490,36,63,-606,987.26,
00:10:38.10,-38,7,1028,1540,-1680,-560,39,58,-610,987.26,
00:10:38.12,-38,6,1028,1470,-1680,-560,31,57,-604,987.26,
00:10:38.14,-38,6,1028,1540,-1680,-490,31,54,-619,987.26,
00:10:38.16,-41,7,1027,1610,-1680,-560,36,60,-612,987.26,
00:10:38.18,-38,5,1028,1540,-1680,-560,33,55,-613,987.26,
00:10:38.20,-35,6,1027,1610,-1680,-490,33,55,-615,987.26,
00:10:38.22,-39,7,1026,1540,-1680,-560,25,52,-610,987.26,
00:10:38.24,-39,6,1026,1470,-1680,-490,24,55,-604,987.26,
00:10:38.26,-42,7,1024,1540,-1680,-490,28,55,-612,987.26,
00:10:38.28,-43,7,1024,1540,-1610,-560,42,58,-615,987.26,
00:10:38.30,-39,6,1026,1540,-1680,-560,36,49,-607,987.25,
00:10:38.32,-39,7,1025,1540,-1680,-490,28,58,-612,987.25,
00:10:38.34,-42,5,1025,1540,-1610,-490,31,60,-610,987.25,
00:10:38.36,-41,7,1026,1540,-1680,-490,27,54,-610,987.25,
00:10:38.38,-42,7,1025,1470,-1680,-490,33,46,-618,987.25,
00:10:38.40,-43,7,1026,1470,-1680,-560,36,60,-603,987.25,
00:10:38.42,-39,6,1025,1540,-1680,-490,33,54,-609,987.26,
00:10:38.44,-41,6,1026,1540,-1680,-490,30,63,-616,987.26,
00:10:38.46,-42,7,1026,1540,-1680,-490,31,58,-604,987.27,
00:10:38.48,-42,7,1026,1540,-1680,-490,30,51,-607,987.27,
00:10:38.50,-40,8,1026,1540,-1680,-490,34,54,-610,987.27,
00:10:38.52,-39,7,1027,1540,-1680,-490,30,48,-604,987.27,
00:10:38.54,-43,7,1027,1610,-1680,-490,37,55,-616,987.27,
00:10:38.56,-41,7,1024,1610,-1750,-490,39,54,-613,987.27,
00:10:38.58,-40,6,1027,1470,-1680,-490,22,57,-612,987.28,
00:10:38.60,-41,7,1027,1540,-1680,-560,39,60,-609,987.28,
00:10:38.62,-37,7,1026,1540,-1680,-490,39,54,-606,987.27,
00:10:38.64,-37,7,1027,1540,-1610,-560,30,51,-609,987.27,
00:10:38.66,-43,6,1027,1540,-1680,-490,30,54,-601,987.27,
00:10:38.68,-40,7,1025,1610,-1680,-490,33,58,-615,987.27,
00:10:38.70,-39,7,1028,1470,-1680,-560,33,55,-613,987.27,
00:10:38.72,-38,6,1029,1470,-1680,-490,24,60,-612,987.27,
00:10:38.74,-35,7,1027,1610,-1750,-560,39,55,-613,987.27,
00:10:38.76,-37,7,1028,1470,-1680,-560,30,57,-612,987.27,
00:10:38.78,-39,7,1028,1610,-1680,-490,31,48,-603,987.27,
00:10:38.80,-38,8,1028,1540,-1680,-490,34,58,-606,987.27,
00:10:38.82,-37,6,1029,1470,-1610,-490,33,54,-613,987.27,
00:10:38.84,-36,8,1029,1540,-1610,-560,30,49,-610,987.27,
00:10:38.86,-37,7,1028,1540,-1610,-560,33,54,-606,987.27,
00:10:38.88,-39,7,1027,1470,-1680,-490,33,57,-604,987.27,
00:10:38.90,-38,7,1029,1540,-1680,-560,28,57,-606,987.27,
00:10:38.92,-37,7,1029,1540,-1680,-490,33,51,-618,987.27,
00:10:38.94,-37,8,1030,1540,-1680,-490,34,49,-606,987.27,
00:10:38.96,-40,5,1030,1470,-1680,-560,24,52,-613,987.27,
00:10:38.98,-38,6,1027,1610,-1680,-490,37,55,-610,987.28,
00:10:39.00,-37,7,1031,1400,-1680,-560,30,49,-601,987.28,
00:10:39.02,-37,7,1030,1680,-1610,-490,31,52,-610,987.28,
00:10:39.04,-36,9,1029,1610,-1680,-490,30,55,-612,987.28,
00:10:39.06,-40,6,1029,1400,-1680,-490,31,48,-607,987.28,
00:10:39.08,-40,6,1030,1610,-1680,-490,27,61,-610,987.28,
00:10:39.10,-43,6,1028,1470,-1680,-560,31,58,-616,987.28,
00:10:39.12,-37,7,1029,1540,-1680,-560,22,52,-603,987.28,
00:10:39.14,-38,7,1030,1610,-1680,-560,25,57,-604,987.28,
00:10:39.16,-40,7,1029,1540,-1680,-560,37,51,-610,987.28,
00:10:39.18,-43,7,1028,1610,-1680,-490,25,51,-607,987.28,
00:10:39.20,-42,7,1027,1540,-1750,-490,33,57,-610,987.28,
00:10:39.22,-41,7,1028,1540,-1750,-490,36,51,-603,987.28,
00:10:39.24,-39,6,1028,1610,-1680,-490,28,57,-610,987.28,
00:10:39.26,-40,7,1026,1610,-1680,-490,31,55,-616,987.28,
00:10:39.28,-42,6,1027,1400,-1680,-490,30,57,-607,987.28,
00:10:39.30,-42,6,1026,1540,-1750,-560,36,57,-607,987.28,
00:10:39.32,-40,7,1026,1540,-1680,-490,30,54,-603,987.28,
00:10:39.34,-38,6,1028,1470,-1680,-490,33,57,-612,987.28,
00:10:39.36,-44,6,1026,1610,-1680,-490,37,58,-607,987.28,
00:10:39.38,-40,7,1027,1540,-1750,-490,27,64,-610,987.28,
00:10:39.40,-42,6,1027,1540,-1750,-560,33,51,-609,987.28,
00:10:39.42,-42,7,1027,1470,-1750,-560,30,60,-609,987.28,
00:10:39.44,-39,7,1027,1540,-1680,-490,28,52,-610,987.28,
00:10:39.46,-35,7,1028,1540,-1680,-560,31,55,-610,987.28,
00:10:39.48,-42,6,1027,1470,-1750,-490,27,57,-606,987.28,
00:10:39.50,-40,7,1026,1680,-1680,-490,37,46,-600,987.28,
00:10:39.52,-39,8,1026,1470,-1750,-490,25,57,-600,987.28,
00:10:39.54,-39,6,1028,1540,-1680,-560,27,57,-616,987.28,
00:10:39.56,-35,6,1027,1610,-1680,-420,42,60,-604,987.28,
00:10:39.58,-36,8,1026,1540,-1610,-560,33,58,-615,987.28,
00:10:39.60,-43,6,1027,1540,-1750,-560,28,52,-607,987.28,
00:10:39.62,-37,8,1025,1610,-1680,-420,28,48,-615,987.28,
00:10:39.64,-34,7,1025,1470,-1680,-560,25,55,-616,987.28,
00:10:39.66,-40,5,1027,1470,-1680,-560,33,54,-607,987.28,
00:10:39.68,-37,7,1026,1680,-1680,-490,33,51,-607,987.28,
00:10:39.70,-35,6,1025,1540,-1680,-490,34,52,-606,987.28,
00:10:39.72,-37,5,1028,1470,-1680,-490,31,51,-612,987.28,
00:10:39.74,-38,6,1025,1680,-1680,-560,28,57,-612,987.28,
00:10:39.76,-35,7,1023,1540,-1680,-490,24,57,-609,987.29,
00:10:39.78,-39,6,1027,1470,-1680,-560,27,57,-607,987.29,
00:10:39.80,-42,5,1024,1680,-1680,-560,40,46,-604,987.28,
00:10:39.82,-40,6,1024,1540,-1750,-490,34,51,-615,987.28,
00:10:39.84,-36,7,1025,1610,-1680,-490,36,60,-603,987.28,
00:10:39.86,-39,8,1024,1540,-1680,-560,31,45,-615,987.28,
00:10:39.88,-39,6,1024,1470,-1680,-490,34,54,-606,987.28,
00:10:39.90,-42,6,1025,1610,-1680,-490,37,57,-610,987.28,
00:10:39.92,-42,5,1023,1610,-1680,-560,30,58,-604,987.28,
00:10:39.94,-41,7,1022,1540,-1610,-560,25,55,-603,987.28,
00:10:39.96,-36,6,1024,1540,-1680,-490,31,49,-606,987.28,
00:10:39.98,-42,7,1021,1610,-1680,-560,25,54,-603,987.28,
00:10:40.00,-40,7,1024,1470,-1750,-490,33,55,-610,987.28,
00:10:40.02,-41,7,1024,1540,-1750,-490,28,57,-601,987.28,
00:10:40.04,-43,8,1024,1610,-1680,-560,30,55,-606,987.28,
00:10:40.06,-40,6,1026,1540,-1610,-490,25,54,-615,987.28,
00:10:40.08,-41,6,1026,1610,-1680,-490,37,52,-612,987.29,
00:10:40.10,-43,6,1025,1540,-1680,-560,40,51,-613,987.29,
00:10:40.12,-41,5,1024,1540,-1750,-490,30,51,-609,987.29,
00:10:40.14,-40,8,1026,1540,-1750,-490,25,63,-612,987.29,
00:10:40.16,-40,8,1025,1610,-1680,-560,34,55,-610,987.28,
00:10:40.18,-42,7,1025,1610,-1750,-490,37,58,-612,987.28,
00:10:40.20,-42,6,1024,1540,-1750,-490,33,57,-612,987.27,
00:10:40.22,-42,8,1025,1540,-1680,-560,24,64,-612,987.27,
00:10:40.24,-40,7,1026,1540,-1750,-490,37,57,-606,987.28,
00:10:40.26,-38,8,1025,1610,-1680,-560,36,52,-607,987.28,
00:10:40.28,-38,7,1027,1470,-1680,-490,31,55,-600,987.28,
00:10:40.30,-40,7,1025,1610,-1680,-490,36,49,-610,987.28,
00:10:40.32,-41,7,1024,1540,-1680,-560,30,51,-606,987.28,
00:10:40.34,-40,7,1027,1540,-1680,-490,24,57,-607,987.28,
00:10:40.36,-38,8,1027,1610,-1680,-490,37,60,-609,987.28,
00:10:40.38,-38,7,1026,1540,-1680,-490,30,57,-604,987.28,
00:10:40.40,-37,7,1027,1540,-1610,-560,31,51,-619,987.28,
00:10:40.42,-39,7,1026,1680,-1680,-490,36,54,-607,987.28,
00:10:40.44,-38,8,1027,1540,-1680,-490,36,48,-609,987.29,
00:10:40.46,-39,8,1028,1540,-1680,-560,40,55,-604,987.29,
00:10:40.48,-36,7,1028,1540,-1680,-490,34,60,-613,987.29,
00:10:40.50,-36,7,1027,1540,-1680,-560,21,52,-615,987.29,
00:10:40.52,-38,7,1028,1470,-1610,-560,25,54,-607,987.29,
00:10:40.54,-38,7,1028,1610,-1680,-490,34,57,-601,987.29,
00:10:40.56,-36,7,1027,1540,-1680,-560,34,57,-616,987.29,
00:10:40.58,-37,6,1028,1470,-1680,-560,36,54,-601,987.29,
00:10:40.60,-36,6,1028,1610,-1680,-560,31,46,-604,987.28,
00:10:40.62,-37,7,1026,1540,-1680,-560,30,57,-609,987.28,
00:10:40.64,-40,5,1026,1470,-1680,-560,28,57,-613,987.28,
00:10:40.66,-35,7,1025,1610,-1680,-560,30,58,-612,987.28,
00:10:40.68,-37,7,1026,1540,-1680,-560,33,67,-607,987.28,
00:10:40.70,-39,6,1028,1470,-1680,-560,25,54,-613,987.28,
00:10:40.72,-38,7,1027,1680,-1750,-560,27,63,-609,987.28,
00:10:40.74,-41,7,1025,1610,-1680,-560,33,52,-607,987.28,
00:10:40.76,-43,6,1026,1470,-1680,-490,36,46,-607,987.28,
00:10:40.78,-37,7,1025,1610,-1680,-490,24,58,-613,987.28,
00:10:40.80,-39,6,1025,1470,-1610,-560,30,57,-606,987.28,
00:10:40.82,-40,6,1027,1540,-1680,-490,33,55,-607,987.28,
00:10:40.84,-42,6,1024,1610,-1750,-490,33,49,-610,987.28,
00:10:40.86,-41,7,1025,1470,-1750,-490,28,51,-606,987.28,
00:10:40.88,-43,6,1026,1540,-1680,-490,31,52,-606,987.28,
00:10:40.90,-39,8,1026,1610,-1680,-490,27,57,-613,987.28,
00:10:40.92,-41,7,1026,1540,-1750,-490,33,55,-603,987.28,
00:10:40.94,-43,6,1025,1610,-1680,-490,25,49,-607,987.28,
00:10:40.96,-41,7,1025,1610,-1680,-490,27,55,-616,987.28,
00:10:40.98,-41,7,1026,1540,-1680,-490,30,57,-606,987.28,
00:10:41.00,-40,6,1026,1540,-1680,-560,34,54,-613,987.28,
00:10:41.02,-41,6,1027,1610,-1680,-560,40,55,-610,987.28,
00:10:41.04,-43,8,1026,1540,-1680,-490,34,46,-612,987.28,
00:10:41.06,-41,6,1027,1540,-1680,-560,40,54,-606,987.28,
00:10:41.08,-39,8,1028,1540,-1750,-490,36,55,-604,987.28,
00:10:41.10,-40,6,1028,1540,-1680,-560,37,57,-616,987.28,
00:10:41.12,-43,7,1029,1610,-1680,-560,33,51,-612,987.28,
00:10:41.14,-41,7,1027,1540,-1750,-490,28,58,-612,987.28,
00:10:41.16,-42,7,1027,1540,-1680,-560,33,58,-612,987.28,
00:10:41.18,-38,7,1029,1470,-1750,-560,27,57,-604,987.28,
00:10:41.20,-36,8,1029,1610,-1750,-560,31,58,-601,987.28,
00:10:41.22,-38,5,1027,1470,-1680,-560,30,60,-615,987.29,
00:10:41.24,-44,7,1027,1540,-1680,-490,27,60,-612,987.29,
00:10:41.26,-38,8,1030,1540,-1680,-420,33,49,-615,987.29,
00:10:41.28,-42,7,1029,1540,-1680,-560,31,55,-615,987.29,
00:10:41.30,-34,8,1030,1610,-1750,-490,39,58,-613,987.28,
00:10:41.32,-37,7,1027,1540,-1750,-490,33,57,-613,987.28,
00:10:41.34,-39,7,1030,1470,-1610,-630,34,52,-610,987.28,
00:10:41.36,-35,8,1029,1680,-1680,-420,31,54,-603,987.28,
00:10:41.38,-38,9,1028,1540,-1680,-490,28,60,-609,987.29,
00:10:41.40,-38,7,1030,1540,-1610,-630,25,48,-607,987.29,
00:10:41.42,-35,7,1028,1540,-1680,-420,31,54,-616,987.29,
00:10:41.44,-40,7,1028,1540,-1610,-630,28,49,-604,987.29,
00:10:41.46,-40,7,1029,1540,-1680,-560,37,60,-610,987.29,
00:10:41.48,-35,7,1027,1610,-1750,-490,34,61,-616,987.29,
00:10:41.50,-36,7,1027,1470,-1680,-560,36,58,-607,987.28,
00:10:41.52,-36,7,1029,1610,-1680,-560,25,57,-607,987.28,
00:10:41.54,-40,6,1027,1470,-1680,-560,30,46,-610,987.28,
00:10:41.56,-41,6,1027,1610,-1680,-560,34,52,-609,987.28,
00:10:41.58,-41,6,1026,1610,-1680,-490,31,55,-613,987.29,
00:10:41.60,-38,6,1029,1470,-1680,-560,34,57,-615,987.29,
00:10:41.62,-40,6,1028,1610,-1680,-560,34,57,-610,987.29,
00:10:41.64,-39,6,1029,1540,-1680,-490,31,54,-607,987.29,
00:10:41.66,-41,7,1028,1540,-1680,-560,30,49,-613,987.29,
00:10:41.68,-42,7,1026,1540,-1680,-490,33,57,-609,987.29,
00:10:41.70,-40,7,1027,1540,-1750,-490,33,48,-612,987.29,
00:10:41.72,-38,6,1027,1540,-1680,-490,30,54,-607,987.29,
00:10:41.74,-41,6,1027,1540,-1680,-490,34,52,-610,987.29,
00:10:41.76,-42,7,1027,1470,-1750,-560,31,49,-616,987.29,
00:10:41.78,-42,7,1028,1540,-1680,-490,34,58,-606,987.29,
00:10:41.80,-40,7,1027,1540,-1750,-490,31,51,-613,987.29,
00:10:41.82,-39,7,1028,1540,-1680,-490,34,55,-616,987.30,
00:10:41.84,-42,6,1026,1540,-1680,-490,33,57,-604,987.30,
00:10:41.86,-42,6,1027,1540,-1680,-490,28,42,-615,987.29,
00:10:41.88,-40,7,1026,1540,-1680,-490,31,60,-616,987.29,
00:10:41.90,-39,7,1026,1540,-1750,-490,33,51,-610,987.29,
00:10:41.92,-39,7,1027,1470,-1680,-560,31,57,-613,987.29,
00:10:41.94,-35,7,1028,1540,-1680,-490,28,55,-612,987.28,
00:10:41.96,-42,7,1027,1540,-1680,-490,33,55,-610,987.28,
00:10:41.98,-40,6,1027,1540,-1680,-490,28,51,-615,987.29,
00:10:42.00,-39,8,1027,1540,-1680,-560,30,63,-613,987.29,
00:10:42.02,-37,7,1028,1540,-1610,-490,30,60,-612,987.29,
00:10:42.04,-36,7,1026,1610,-1680,-560,37,57,-612,987.29,
00:10:42.06,-41,7,1026,1470,-1680,-560,31,57,-604,987.30,
00:10:42.08,-37,8,1027,1610,-1680,-490,31,60,-619,987.30,
00:10:42.10,-37,8,1027,1540,-1680,-560,33,52,-603,987.30,
00:10:42.12,-37,7,1028,1400,-1680,-490,27,58,-606,987.30,
00:10:42.14,-38,7,1027,1610,-1680,-560,24,52,-609,987.30,
00:10:42.16,-37,7,1027,1610,-1680,-490,36,48,-603,987.30,
00:10:42.18,-36,6,1027,1540,-1680,-490,33,60,-604,987.32,
00:10:42.20,-38,8,1028,1610,-1680,-560,39,49,-612,987.32,
00:10:42.22,-37,6,1028,1610,-1680,-560,36,60,-613,987.32,
00:10:42.24,-38,7,1028,1540,-1610,-490,37,63,-606,987.32,
00:10:42.26,-39,7,1028,1540,-1680,-560,19,57,-613,987.32,
00:10:42.28,-42,7,1026,1540,-1750,-490,39,55,-607,987.32,
00:10:42.30,-37,7,1029,1540,-1750,-490,31,57,-613,987.32,
00:10:42.32,-37,7,1028,1610,-1610,-630,31,54,-610,987.32,
00:10:42.34,-38,7,1027,1470,-1680,-490,30,55,-610,987.30,
00:10:42.36,-45,8,1029,1540,-1680,-560,25,51,-610,987.30,
00:10:42.38,-39,7,1027,1610,-1750,-420,27,52,-609,987.29,
00:10:42.40,-42,7,1027,1610,-1680,-490,36,51,-616,987.29,
00:10:42.42,-39,6,1028,1470,-1680,-560,36,57,-613,987.29,
00:10:42.44,-39,7,1027,1610,-1680,-490,36,51,-610,987.29,
00:10:42.46,-40,8,1027,1540,-1680,-560,31,63,-612,987.29,
00:10:42.48,-43,6,1027,1540,-1750,-490,36,51,-606,987.30,
00:10:42.50,-40,7,1027,1540,-1680,-490,25,60,-613,987.30,
00:10:42.52,-39,8,1027,1540,-1680,-490,34,55,-613,987.29,
00:10:42.54,-39,6,1027,1610,-1680,-490,31,60,-616,987.29,
00:10:42.56,-42,7,1026,1540,-1750,-490,22,54,-615,987.30,
00:10:42.58,-42,7,1026,1470,-1750,-560,37,60,-610,987.30,
00:10:42.60,-41,7,1027,1610,-1680,-490,33,49,-606,987.30,
00:10:42.62,-39,8,1027,1610,-1680,-560,39,54,-615,987.30,
00:10:42.64,-35,8,1028,1540,-1680,-490,28,54,-612,987.29,
00:10:42.66,-41,8,1026,1540,-1680,-490,43,55,-610,987.29,
00:10:42.68,-40,5,1025,1540,-1680,-490,34,55,-610,987.30,
00:10:42.70,-39,7,1026,1610,-1680,-560,28,58,-607,987.30,
00:10:42.72,-39,8,1025,1540,-1680,-490,30,55,-613,987.29,
00:10:42.74,-39,6,1024,1610,-1610,-560,31,49,-610,987.29,
00:10:42.76,-33,8,1026,1540,-1680,-490,30,48,-610,987.29,
00:10:42.78,-39,7,1025,1540,-1750,-490,37,52,-601,987.29,
00:10:42.80,-41,9,1026,1540,-1680,-490,36,52,-612,987.29,
00:10:42.82,-38,5,1028,1470,-1610,-560,30,54,-613,987.29,
00:10:42.84,-36,7,1028,1540,-1680,-560,31,54,-607,987.29,
00:10:42.86,-38,7,1026,1610,-1680,-560,33,49,-613,987.29,
00:10:42.88,-38,6,1027,1470,-1680,-560,28,54,-618,987.29,
00:10:42.90,-38,6,1026,1610,-1680,-490,39,63,-607,987.29,
00:10:42.92,-37,6,1026,1470,-1680,-560,31,58,-612,987.28,
00:10:42.94,-38,8,1027,1540,-1680,-490,33,46,-613,987.28,
00:10:42.96,-37,7,1026,1610,-1680,-560,31,55,-610,987.28,
00:10:42.98,-40,6,1026,1400,-1680,-490,30,58,-621,987.28,
00:10:43.00,-36,8,1026,1610,-1680,-490,28,54,-607,987.28,
00:10:43.02,-37,7,1024,1540,-1610,-560,33,58,-615,987.28,
00:10:43.04,-37,5,1030,1330,-1610,-560,37,52,-613,987.28,
00:10:43.06,-39,8,1025,1750,-1680,-490,27,52,-610,987.28,
00:10:43.08,-41,7,1025,1540,-1610,-560,37,52,-607,987.29,
00:10:43.10,-40,7,1029,1400,-1680,-490,31,54,-609,987.29,
00:10:43.12,-37,7,1024,1610,-1680,-490,28,49,-610,987.29,
00:10:43.14,-36,7,1026,1470,-1680,-560,33,52,-609,987.29,
00:10:43.16,-42,5,1024,1470,-1680,-560,37,46,-618,987.29,
00:10:43.18,-40,7,1025,1610,-1680,-490,31,54,-612,987.29,
00:10:43.20,-43,7,1023,1610,-1680,-490,28,54,-615,987.28,
00:10:43.22,-41,6,1024,1470,-1680,-560,30,55,-604,987.28,
00:10:43.24,-38,7,1025,1610,-1680,-490,25,60,-607,987.29,
00:10:43.26,-41,6,1023,1470,-1680,-490,24,51,-610,987.29,
00:10:43.28,-44,6,1025,1540,-1680,-490,30,55,-612,987.28,
00:10:43.30,-40,6,1024,1540,-1750,-420,33,60,-612,987.28,
00:10:43.32,-41,9,1023,1540,-1680,-560,25,54,-610,987.28,
00:10:43.34,-38,7,1025,1470,-1680,-490,33,57,-618,987.28,
00:10:43.36,-40,7,1025,1610,-1680,-420,30,57,-618,987.29,
00:10:43.38,-43,8,1025,1540,-1680,-490,27,45,-615,987.29,
00:10:43.40,-42,7,1025,1540,-1610,-560,37,58,-619,987.28,
00:10:43.42,-39,7,1025,1610,-1750,-490,31,54,-616,987.28,
00:10:43.44,-40,7,1024,1540,-1680,-630,27,52,-616,987.28,
00:10:43.46,-36,7,1026,1540,-1750,-560,22,55,-606,987.28,
00:10:43.48,-42,6,1023,1610,-1750,-490,31,58,-613,987.28,
00:10:43.50,-40,7,1024,1470,-1750,-490,33,54,-613,987.28,
00:10:43.52,-39,7,1024,1540,-1610,-490,25,63,-622,987.28,
00:10:43.54,-35,8,1023,1540,-1680,-490,30,46,-610,987.28,
00:10:43.56,-39,5,1024,1540,-1610,-560,33,55,-607,987.28,
00:10:43.58,-37,7,1025,1540,-1680,-560,31,54,-613,987.28,
00:10:43.60,-38,7,1024,1540,-1680,-490,30,48,-616,987.28,
00:10:43.62,-38,5,1023,1470,-1680,-560,28,54,-609,987.28,
00:10:43.64,-33,10,1026,1680,-1680,-490,28,67,-609,987.28,
00:10:43.66,-42,6,1024,1400,-1610,-630,40,54,-612,987.28,
00:10:43.68,-37,6,1026,1680,-1680,-490,30,51,-606,987.28,
00:10:43.70,-40,8,1023,1610,-1680,-420,34,61,-606,987.28,
00:10:43.72,-43,2,1024,1470,-1540,-560,37,52,-604,987.28,
00:10:43.74,-38,8,1025,1610,-1680,-490,27,51,-606,987.28,
00:10:43.76,-34,16,1022,2030,-1540,-560,31,57,-600,987.29,
00:10:43.78,-30,3,1032,840,-1750,-420,30,54,-610,987.29,
00:10:43.80,-74,8,1026,1610,-1470,-1050,25,58,-613,987.29,
00:10:43.82,0,6,1011,2310,-2170,420,30,58,-607,987.29,
00:10:43.84,-55,-18,1030,210,-1610,-490,33,58,-603,987.29,
00:10:43.86,-31,13,1026,2590,-1890,-280,37,63,-607,987.29,
00:10:43.88,-35,16,1012,1890,-1750,-560,25,52,-618,987.29,
00:10:43.90,-46,0,1034,210,-1540,-700,27,42,-610,987.29,
00:10:43.92,-48,6,1027,2380,-1680,-350,27,51,-598,987.29,
00:10:43.94,-35,15,1016,1050,-1540,-700,31,63,-613,987.30,
00:10:43.96,-47,3,1033,1330,-1680,-630,22,51,-606,987.30,
00:10:43.98,-40,8,1024,1960,-1750,-350,34,51,-609,987.29,
00:10:44.00,-41,9,1020,1470,-1680,-560,33,60,-607,987.29,
00:10:44.02,-44,5,1030,1190,-1610,-560,25,51,-612,987.30,
00:10:44.04,-43,6,1025,1820,-1750,-490,27,54,-613,987.30,
00:10:44.06,-32,15,1029,1470,-1680,-560,30,49,-610,987.29,
00:10:44.08,-58,0,1027,1330,-1610,-840,28,52,-613,987.29,
00:10:44.10,-27,12,1028,1820,-1820,-280,34,61,-610,987.28,
00:10:44.12,-48,11,1024,1610,-1610,-560,28,55,-621,987.28,
00:10:44.14,-39,5,1030,1260,-1540,-700,34,52,-610,987.29,
00:10:44.16,-35,7,1026,1820,-1750,-210,30,55,-606,987.29,
00:10:44.18,-41,5,1026,1260,-1680,-490,39,60,-603,987.28,
00:10:44.20,-45,9,1025,1750,-1610,-630,37,49,-607,987.28,
00:10:44.22,-36,6,1025,1540,-1680,-420,31,61,-612,987.29,
00:10:44.24,-38,7,1024,1470,-1750,-490,25,52,-609,987.29,
00:10:44.26,-39,7,1026,1610,-1680,-560,31,51,-615,987.29,
00:10:44.28,-34,6,1024,1540,-1750,-420,33,52,-612,987.29,
00:10:44.30,-40,8,1026,1540,-1750,-420,34,66,-613,987.29,
00:10:44.32,-42,7,1024,1610,-1680,-560,30,49,-607,987.29,
00:10:44.34,-38,7,1024,1610,-1680,-490,27,45,-610,987.29,
00:10:44.36,-34,7,1024,1540,-1750,-490,34,58,-616,987.29,
00:10:44.38,-39,6,1025,1540,-1610,-560,39,45,-609,987.29,
00:10:44.40,-38,7,1026,1540,-1680,-490,21,51,-606,987.29,
00:10:44.42,-36,6,1024,1540,-1680,-490,33,55,-610,987.29,
00:10:44.44,-38,9,1025,1540,-1680,-560,31,52,-607,987.29,
00:10:44.46,-36,5,1025,1540,-1680,-490,36,49,-618,987.29,
00:10:44.48,-37,6,1025,1540,-1680,-560,34,52,-610,987.29,
00:10:44.50,-38,7,1026,1540,-1680,-560,31,55,-616,987.30,
00:10:44.52,-41,7,1024,1540,-1610,-560,27,57,-609,987.30,
00:10:44.54,-36,7,1026,1540,-1610,-560,37,52,-612,987.30,
00:10:44.56,-36,6,1026,1540,-1680,-490,33,49,-615,987.30,
00:10:44.58,-40,7,1026,1540,-1610,-560,33,54,-616,987.29,
00:10:44.60,-39,5,1027,1540,-1680,-490,31,52,-609,987.29,
00:10:44.62,-42,6,1024,1610,-1680,-490,27,55,-612,987.29,
00:10:44.64,-40,7,1025,1610,-1680,-560,33,52,-610,987.29,
00:10:44.66,-36,6,1027,1540,-1680,-490,27,48,-613,987.29,
00:10:44.68,-38,7,1025,1610,-1680,-560,30,51,-615,987.29,
00:10:44.70,-39,7,1026,1470,-1680,-560,33,58,-603,987.29,
00:10:44.72,-41,5,1026,1540,-1680,-490,33,58,-607,987.29,
00:10:44.74,-42,7,1025,1610,-1680,-490,33,58,-603,987.29,
00:10:44.76,-42,7,1025,1540,-1680,-560,33,57,-601,987.29,
00:10:44.78,-39,5,1026,1470,-1680,-490,25,54,-604,987.29,
00:10:44.80,-41,6,1025,1610,-1680,-490,31,49,-604,987.29,
00:10:44.82,-43,7,1026,1470,-1610,-560,31,49,-607,987.30,
00:10:44.84,-41,6,1028,1540,-1750,-420,33,49,-612,987.30,
00:10:44.86,-44,9,1026,1610,-1680,-560,30,51,-612,987.29,
00:10:44.88,-36,6,1028,1540,-1750,-420,28,55,-607,987.29,
00:10:44.90,-40,7,1028,1610,-1680,-420,30,63,-613,987.29,
00:10:44.92,-43,8,1027,1610,-1680,-490,34,64,-609,987.29,
00:10:44.94,-40,7,1027,1540,-1680,-490,33,48,-609,987.29,
00:10:44.96,-39,5,1029,1470,-1680,-490,25,54,-609,987.29,
00:10:44.98,-37,9,1028,1610,-1750,-490,30,54,-607,987.29,
00:10:45.00,-44,7,1029,1400,-1680,-490,31,58,-609,987.29,
00:10:45.02,-43,5,1030,1610,-1680,-560,36,60,-612,987.29,
00:10:45.04,-38,7,1027,1540,-1750,-420,37,55,-613,987.29,
00:10:45.06,-38,8,1029,1540,-1610,-630,42,55,-601,987.29,
00:10:45.08,-36,6,1030,1400,-1750,-490,27,54,-607,987.29,
00:10:45.10,-41,7,1031,1540,-1680,-630,33,54,-612,987.29,
00:10:45.12,-39,7,1027,1610,-1680,-560,36,57,-607,987.29,
00:10:45.14,-41,7,1031,1400,-1680,-560,37,55,-604,987.28,
00:10:45.16,-40,7,1030,1680,-1680,-490,39,52,-612,987.28,
00:10:45.18,-33,8,1028,1610,-1750,-420,34,54,-613,987.29,
00:10:45.20,-38,7,1031,1400,-1610,-560,30,58,-604,987.29,
00:10:45.22,-38,6,1031,1540,-1680,-490,34,58,-607,987.29,
00:10:45.24,-39,9,1028,1610,-1750,-490,27,54,-610,987.29,
00:10:45.26,-38,8,1030,1470,-1610,-560,40,58,-606,987.29,
00:10:45.28,-37,7,1029,1540,-1680,-560,28,63,-616,987.30,
00:10:45.30,-35,7,1030,1610,-1680,-490,18,51,-619,987.30,
00:10:45.32,-39,8,1028,1540,-1610,-490,30,63,-606,987.29,
00:10:45.34,-38,5,1029,1610,-1680,-490,28,54,-609,987.29,
00:10:45.36,-37,7,1028,1540,-1680,-490,37,64,-616,987.30,
00:10:45.38,-38,7,1027,1610,-1680,-490,37,58,-612,987.30,
00:10:45.40,-38,7,1028,1540,-1610,-560,28,49,-615,987.30,
00:10:45.42,-39,7,1029,1540,-1680,-490,28,54,-613,987.30,
00:10:45.44,-42,7,1028,1540,-1680,-490,31,52,-612,987.29,
00:10:45.46,-43,6,1028,1540,-1680,-490,25,58,-615,987.29,
00:10:45.48,-36,7,1028,1540,-1680,-560,27,46,-607,987.30,
00:10:45.50,-39,5,1028,1540,-1680,-490,28,52,-612,987.30,
00:10:45.52,-40,5,1027,1610,-1680,-490,24,58,-624,987.29,
00:10:45.54,-41,6,1028,1540,-1680,-560,27,52,-612,987.29,
00:10:45.56,-40,6,1028,1540,-1750,-490,39,48,-615,987.29,
00:10:45.58,-41,6,1027,1540,-1680,-490,28,58,-609,987.29,
00:10:45.60,-40,5,1028,1610,-1680,-560,30,60,-610,987.28,
00:10:45.62,-40,7,1029,1540,-1680,-490,31,51,-607,987.28,
00:10:45.64,-43,6,1027,1610,-1680,-490,33,49,-613,987.29,
00:10:45.66,-40,8,1027,1610,-1750,-490,36,57,-619,987.29,
00:10:45.68,-39,8,1028,1470,-1680,-490,31,55,-615,987.30,
00:10:45.70,-39,7,1029,1470,-1680,-490,22,55,-609,987.30,
00:10:45.72,-42,7,1027,1540,-1680,-490,33,46,-609,987.29,
00:10:45.74,-40,8,1027,1610,-1750,-490,37,51,-606,987.29,
00:10:45.76,-40,8,1027,1540,-1680,-490,30,55,-609,987.29,
00:10:45.78,-38,7,1027,1470,-1680,-490,36,60,-610,987.29,
00:10:45.80,-36,7,1028,1540,-1680,-490,27,49,-609,987.30,
00:10:45.82,-37,6,1028,1540,-1680,-560,31,55,-615,987.30,
00:10:45.84,-40,7,1028,1470,-1680,-560,33,48,-610,987.29,
00:10:45.86,-38,7,1029,1610,-1680,-490,27,52,-610,987.29,
00:10:45.88,-36,8,1028,1540,-1680,-490,34,51,-603,987.30,
00:10:45.90,-36,7,1028,1540,-1750,-560,37,55,-607,987.30,
00:10:45.92,-38,6,1029,1470,-1680,-490,36,51,-616,987.32,
00:10:45.94,-39,7,1028,1540,-1680,-490,31,49,-618,987.32,
00:10:45.96,-37,7,1028,1540,-1680,-560,28,54,-609,987.30,
00:10:45.98,-37,7,1028,1540,-1680,-560,34,51,-613,987.30,
00:10:46.00,-37,6,1029,1470,-1680,-490,30,52,-616,987.29,
00:10:46.02,-38,7,1028,1610,-1680,-560,30,60,-607,987.29,
00:10:46.04,-39,7,1028,1470,-1680,-490,24,54,-612,987.29,
00:10:46.06,-37,8,1028,1610,-1680,-560,39,63,-616,987.29,
00:10:46.08,-36,8,1026,1540,-1610,-560,36,51,-612,987.29,
00:10:46.10,-39,5,1028,1400,-1680,-490,36,57,-610,987.29,
00:10:46.12,-41,7,1029,1540,-1680,-560,25,55,-612,987.30,
00:10:46.14,-40,5,1027,1540,-1680,-420,34,58,-610,987.30,
00:10:46.16,-41,8,1026,1540,-1680,-490,24,60,-619,987.29,
00:10:46.18,-42,6,1026,1540,-1680,-560,36,46,-604,987.29,
00:10:46.20,-36,6,1028,1540,-1680,-420,31,55,-612,987.29,
00:10:46.22,-44,7,1025,1540,-1680,-560,31,54,-615,987.29,
00:10:46.24,-41,6,1026,1470,-1680,-560,36,57,-603,987.30,
00:10:46.26,-40,7,1027,1540,-1680,-420,31,51,-606,987.30,
00:10:46.28,-40,9,1024,1610,-1680,-560,40,51,-618,987.29,
00:10:46.30,-43,6,1028,1470,-1680,-490,22,51,-610,987.29,
00:10:46.32,-39,8,1026,1610,-1750,-420,34,60,-601,987.30,
00:10:46.34,-43,7,1025,1540,-1680,-490,36,51,-609,987.30,
00:10:46.36,-38,7,1029,1470,-1750,-490,33,49,-616,987.29,
00:10:46.38,-38,7,1027,1470,-1680,-490,36,55,-609,987.29,
00:10:46.40,-39,7,1028,1470,-1680,-560,33,57,-610,987.28,
00:10:46.42,-41,6,1027,1540,-1680,-490,31,54,-616,987.28,
00:10:46.44,-40,7,1026,1610,-1750,-490,39,52,-607,987.28,
00:10:46.46,-42,9,1028,1400,-1680,-560,34,51,-618,987.28,
00:10:46.48,-37,7,1027,1540,-1680,-490,34,54,-610,987.28,
00:10:46.50,-36,9,1024,1540,-1680,-490,39,52,-609,987.28,
00:10:46.52,-39,8,1024,1470,-1680,-560,31,58,-612,987.29,
00:10:46.54,-39,9,1025,1540,-1680,-490,31,57,-610,987.29,
00:10:46.56,-38,7,1023,1540,-1680,-560,33,55,-613,987.29,
00:10:46.58,-38,5,1025,1470,-1610,-560,31,58,-615,987.29,
00:10:46.60,-32,9,1027,1540,-1750,-420,36,58,-607,987.29,
00:10:46.62,-42,8,1024,1610,-1610,-630,33,58,-603,987.29,
00:10:46.64,-37,5,1028,1470,-1680,-560,33,51,-610,987.29,
00:10:46.66,-30,6,1027,1610,-1750,-420,39,54,-606,987.29,
00:10:46.68,-38,7,1027,1540,-1680,-560,31,52,-615,987.29,
00:10:46.70,-40,12,1029,1540,-1680,-560,36,55,-598,987.28,
00:10:46.72,-39,3,1028,1470,-1680,-420,42,49,-604,987.28,
00:10:46.74,-35,8,1028,1680,-1680,-560,28,51,-618,987.28,
00:10:46.76,-45,7,1026,1470,-1680,-490,30,54,-610,987.28,
00:10:46.78,-39,6,1030,1610,-1680,-560,33,61,-604,987.28,
00:10:46.80,-35,7,1027,1680,-1680,-490,33,48,-613,987.28,
00:10:46.82,-41,5,1029,1330,-1680,-560,37,57,-609,987.28,
00:10:46.84,-42,7,1028,1680,-1680,-560,31,49,-607,987.28,
00:10:46.86,-41,7,1025,1610,-1680,-490,30,58,-604,987.28,
00:10:46.88,-42,7,1027,1400,-1680,-490,28,57,-612,987.28,
00:10:46.90,-41,7,1028,1610,-1680,-560,33,49,-607,987.28,
00:10:46.92,-42,3,1025,1470,-1680,-490,36,51,-610,987.28,
00:10:46.94,-40,10,1029,1540,-1680,-490,36,54,-607,987.28,
00:10:46.96,-43,7,1027,1540,-1680,-490,28,57,-610,987.28,
00:10:46.98,-39,6,1028,1540,-1610,-490,30,55,-610,987.28,
00:10:47.00,-36,10,1028,1470,-1750,-490,28,51,-607,987.28,
00:10:47.02,-45,7,1027,1610,-1680,-560,30,54,-607,987.28,
00:10:47.04,-43,8,1028,1610,-1680,-560,27,54,-600,987.28,
00:10:47.06,-40,7,1028,1540,-1750,-420,27,57,-615,987.28,
00:10:47.08,-39,9,1028,1610,-1680,-560,36,51,-607,987.28,
00:10:47.10,-37,7,1028,1540,-1680,-560,36,60,-610,987.28,
00:10:47.12,-44,7,1027,1610,-1680,-560,30,57,-607,987.28,
00:10:47.14,-40,5,1028,1540,-1750,-490,42,51,-610,987.28,
00:10:47.16,-40,9,1027,1610,-1610,-560,24,46,-616,987.28,
00:10:47.18,-38,7,1030,1540,-1680,-560,36,55,-610,987.28,
00:10:47.20,-38,6,1028,1470,-1610,-560,36,58,-613,987.28,
00:10:47.22,-36,8,1029,1610,-1610,-560,30,51,-619,987.28,
00:10:47.24,-39,7,1027,1470,-1680,-490,37,52,-616,987.28,
00:10:47.26,-39,7,1026,1610,-1680,-560,27,51,-604,987.28,
00:10:47.28,-35,7,1026,1610,-1680,-560,34,51,-603,987.28,
00:10:47.30,-37,7,1026,1470,-1680,-490,28,52,-607,987.28,
00:10:47.32,-39,7,1028,1540,-1610,-560,27,63,-615,987.28,
00:10:47.34,-39,6,1025,1540,-1680,-490,28,66,-615,987.28,
00:10:47.36,-37,7,1026,1540,-1680,-560,30,52,-613,987.28,
00:10:47.38,-37,7,1027,1470,-1680,-490,27,54,-619,987.28,
00:10:47.40,-37,6,1027,1610,-1610,-560,31,60,-618,987.28,
00:10:47.42,-39,8,1027,1540,-1680,-560,31,55,-607,987.28,
00:10:47.44,-42,6,1028,1470,-1680,-490,33,57,-612,987.28,
00:10:47.46,-41,6,1026,1540,-1750,-420,34,54,-609,987.28,
00:10:47.48,-38,7,1028,1470,-1680,-490,31,51,-606,987.28,
00:10:47.50,-37,6,1027,1610,-1680,-490,24,52,-613,987.28,
00:10:47.52,-43,7,1025,1470,-1680,-560,25,55,-607,987.28,
00:10:47.54,-43,6,1026,1470,-1750,-490,36,54,-603,987.28,
00:10:47.56,-40,7,1025,1610,-1750,-490,36,66,-610,987.28,
00:10:47.58,-40,8,1025,1540,-1680,-560,31,52,-612,987.28,
00:10:47.60,-42,5,1026,1540,-1680,-490,39,52,-607,987.28,
00:10:47.62,-42,8,1025,1610,-1680,-490,42,54,-607,987.27,
00:10:47.64,-43,5,1027,1400,-1750,-490,36,57,-603,987.27,
00:10:47.66,-40,7,1027,1610,-1680,-490,30,57,-610,987.28,
00:10:47.68,-38,8,1027,1610,-1750,-490,25,52,-618,987.28,
00:10:47.70,-39,7,1028,1470,-1610,-560,25,58,-615,987.27,
00:10:47.72,-43,8,1025,1610,-1680,-490,24,60,-610,987.27,
00:10:47.74,-41,7,1025,1470,-1680,-490,31,57,-606,987.27,
00:10:47.76,-41,8,1027,1540,-1750,-490,30,51,-607,987.27,
00:10:47.78,-38,8,1026,1610,-1750,-490,40,60,-606,987.28,
00:10:47.80,-36,8,1026,1540,-1680,-560,30,61,-601,987.28,
00:10:47.82,-39,6,1028,1470,-1680,-560,30,58,-606,987.28,
00:10:47.84,-40,8,1024,1610,-1750,-490,27,57,-610,987.28,
00:10:47.86,-39,7,1025,1540,-1680,-490,31,49,-616,987.28,
00:10:47.88,-38,7,1028,1470,-1610,-490,31,48,-613,987.28,
00:10:47.90,-38,8,1025,1680,-1680,-560,28,52,-604,987.28,
00:10:47.92,-37,8,1025,1470,-1680,-490,27,54,-615,987.28,
00:10:47.94,-41,7,1026,1540,-1680,-490,34,55,-619,987.27,
00:10:47.96,-37,8,1025,1610,-1680,-560,33,48,-612,987.27,
00:10:47.98,-35,7,1027,1470,-1680,-560,34,55,-612,987.27,
00:10:48.00,-38,6,1026,1610,-1610,-560,33,51,-622,987.27,
00:10:48.02,-39,7,1024,1610,-1610,-560,37,51,-610,987.28,
00:10:48.04,-41,6,1024,1540,-1680,-560,34,49,-607,987.28,
00:10:48.06,-36,7,1025,1610,-1680,-560,33,49,-607,987.28,
00:10:48.08,-37,6,1025,1610,-1680,-490,34,55,-612,987.28,
00:10:48.10,-40,6,1026,1470,-1610,-560,25,55,-616,987.28,
00:10:48.12,-39,7,1025,1540,-1750,-560,28,55,-603,987.27,
00:10:48.14,-42,7,1022,1540,-1680,-490,33,55,-615,987.27,
00:10:48.16,-41,7,1024,1540,-1680,-490,36,52,-606,987.27,
00:10:48.18,-37,7,1025,1540,-1680,-560,33,55,-615,987.27,
00:10:48.20,-40,7,1023,1540,-1680,-560,31,54,-616,987.27,
00:10:48.22,-41,7,1023,1470,-1680,-490,34,51,-613,987.27,
00:10:48.24,-42,7,1025,1540,-1680,-490,33,51,-616,987.28,
00:10:48.26,-41,8,1024,1610,-1680,-490,33,58,-610,987.28,
00:10:48.28,-39,7,1025,1540,-1680,-490,34,51,-613,987.27,
00:10:48.30,-42,7,1025,1610,-1750,-490,33,49,-613,987.27,
00:10:48.32,-42,7,1026,1540,-1680,-490,36,55,-612,987.27,
00:10:48.34,-42,7,1027,1540,-1680,-490,28,60,-609,987.27,
00:10:48.36,-39,7,1026,1610,-1680,-490,34,58,-609,987.28,
00:10:48.38,-39,7,1027,1470,-1680,-560,43,55,-616,987.28,
00:10:48.40,-36,8,1028,1610,-1750,-560,33,52,-610,987.28,
00:10:48.42,-43,7,1025,1540,-1680,-490,36,54,-612,987.28,
00:10:48.44,-42,6,1027,1470,-1680,-490,25,57,-609,987.27,
00:10:48.46,-38,8,1026,1610,-1750,-490,28,57,-612,987.27,
00:10:48.48,-38,7,1025,1540,-1680,-490,21,54,-612,987.27,
00:10:48.50,-38,7,1027,1470,-1680,-560,31,52,-606,987.27,
00:10:48.52,-37,6,1026,1610,-1680,-560,28,52,-610,987.27,
00:10:48.54,-40,7,1024,1540,-1610,-490,36,55,-612,987.27,
00:10:48.56,-38,7,1027,1540,-1750,-560,28,61,-612,987.27,
00:10:48.58,-36,7,1025,1540,-1680,-560,27,45,-607,987.27,
00:10:48.60,-37,7,1025,1540,-1610,-560,25,55,-606,987.27,
00:10:48.62,-37,6,1026,1540,-1680,-560,33,60,-610,987.27,
00:10:48.64,-40,7,1025,1540,-1680,-490,31,60,-613,987.28,
00:10:48.66,-37,8,1026,1470,-1680,-560,31,55,-610,987.28,
00:10:48.68,-37,6,1026,1610,-1680,-490,24,51,-607,987.28,
00:10:48.70,-38,7,1026,1540,-1610,-560,31,54,-616,987.28,
00:10:48.72,-40,7,1026,1540,-1680,-490,33,49,-619,987.28,
00:10:48.74,-41,7,1024,1540,-1680,-490,25,52,-609,987.28,
00:10:48.76,-44,7,1025,1540,-1680,-490,36,54,-613,987.28,
00:10:48.78,-38,7,1026,1540,-1680,-490,31,52,-607,987.28,
00:10:48.80,-40,6,1025,1540,-1680,-490,33,58,-616,987.27,
00:10:48.82,-42,6,1026,1540,-1680,-560,42,52,-610,987.27,
00:10:48.84,-41,8,1026,1540,-1680,-490,31,46,-613,987.27,
00:10:48.86,-42,7,1025,1540,-1750,-490,33,52,-609,987.27,
00:10:48.88,-40,8,1026,1540,-1680,-490,37,58,-613,987.26,
00:10:48.90,-42,6,1026,1540,-1680,-490,30,55,-612,987.26,
00:10:48.92,-42,7,1025,1540,-1680,-560,33,54,-610,987.27,
00:10:48.94,-42,6,1026,1540,-1680,-490,37,58,-612,987.27,
00:10:48.96,-40,7,1026,1540,-1750,-490,34,51,-612,987.26,
00:10:48.98,-38,8,1027,1540,-1680,-490,28,57,-615,987.26,
00:10:49.00,-37,6,1027,1540,-1750,-490,36,52,-616,987.26,
00:10:49.02,-41,7,1027,1540,-1750,-560,31,54,-612,987.26,
00:10:49.04,-39,7,1025,1540,-1680,-490,30,51,-613,987.26,
00:10:49.06,-39,8,1026,1540,-1680,-560,40,54,-604,987.26,
00:10:49.08,-37,8,1026,1470,-1680,-560,27,57,-607,987.26,
00:10:49.10,-38,7,1026,1540,-1680,-560,33,52,-609,987.26,
00:10:49.12,-40,7,1025,1540,-1680,-490,30,52,-612,987.26,
00:10:49.14,-39,8,1026,1540,-1680,-490,30,52,-607,987.26,
00:10:49.16,-37,7,1026,1540,-1680,-560,28,55,-615,987.26,
00:10:49.18,-37,6,1026,1610,-1680,-560,24,43,-609,987.26,
00:10:49.20,-38,6,1025,1540,-1680,-560,30,46,-613,987.25,
00:10:49.22,-40,7,1024,1610,-1680,-490,27,57,-609,987.25,
00:10:49.24,-37,7,1026,1540,-1680,-560,25,57,-613,987.26,
00:10:49.26,-37,7,1025,1610,-1680,-560,33,58,-615,987.26,
00:10:49.28,-38,6,1026,1540,-1680,-630,28,48,-607,987.26,
00:10:49.30,-40,6,1025,1470,-1680,-560,30,61,-606,987.26,
00:10:49.32,-40,6,1025,1540,-1680,-490,37,49,-610,987.26,
00:10:49.34,-42,7,1025,1540,-1680,-490,31,51,-610,987.26,
00:10:49.36,-38,6,1026,1610,-1680,-560,34,46,-610,987.27,
00:10:49.38,-39,7,1026,1540,-1750,-490,27,54,-610,987.27,
00:10:49.40,-41,6,1025,1540,-1680,-490,33,57,-606,987.26,
00:10:49.42,-42,7,1025,1540,-1750,-490,30,61,-607,987.26,
00:10:49.44,-42,8,1025,1540,-1680,-490,36,52,-616,987.26,
00:10:49.46,-40,7,1026,1610,-1680,-490,31,51,-607,987.26,
00:10:49.48,-41,7,1025,1540,-1680,-490,31,48,-613,987.26,
00:10:49.50,-43,6,1025,1540,-1680,-490,33,58,-613,987.26,
00:10:49.52,-42,7,1024,1540,-1680,-490,28,61,-610,987.26,
00:10:49.54,-41,7,1025,1470,-1680,-490,33,57,-601,987.26,
00:10:49.56,-38,6,1026,1610,-1680,-490,39,51,-612,987.26,
00:10:49.58,-40,8,1024,1610,-1680,-560,25,57,-606,987.26,
00:10:49.60,-41,7,1026,1540,-1680,-420,33,58,-612,987.26,
00:10:49.62,-38,9,1025,1610,-1680,-490,34,61,-610,987.27,
00:10:49.64,-43,6,1025,1330,-1680,-490,34,48,-612,987.27,
00:10:49.66,-39,6,1026,1610,-1680,-490,34,55,-618,987.26,
00:10:49.68,-35,7,1023,1610,-1680,-490,33,60,-610,987.26,
00:10:49.70,-36,6,1025,1470,-1680,-560,30,58,-610,987.26,
00:10:49.72,-40,8,1024,1680,-1680,-490,27,54,-603,987.26,
00:10:49.74,-40,7,1024,1540,-1680,-560,33,52,-603,987.25,
00:10:49.76,-36,8,1027,1540,-1680,-490,28,52,-610,987.25,
00:10:49.78,-40,5,1025,1540,-1610,-630,28,51,-612,987.26,
00:10:49.80,-33,8,1026,1610,-1680,-490,33,43,-604,987.26,
00:10:49.82,-42,8,1024,1400,-1750,-420,28,52,-604,987.26,
00:10:49.84,-39,8,1025,1610,-1680,-490,27,51,-615,987.26,
00:10:49.86,-38,7,1025,1540,-1610,-700,36,48,-615,987.26,
00:10:49.88,-35,4,1025,1470,-1680,-420,27,54,-612,987.26,
00:10:49.90,-40,8,1024,1680,-1610,-560,34,52,-610,987.27,
00:10:49.92,-38,7,1024,1540,-1680,-560,36,54,-597,987.27,
00:10:49.94,-42,5,1024,1400,-1680,-490,36,58,-607,987.27,
00:10:49.96,-36,7,1025,1610,-1680,-490,36,58,-615,987.27,
00:10:49.98,-39,7,1025,1540,-1680,-560,34,60,-612,987.26,
00:10:50.00,-40,5,1025,1540,-1680,-490,33,55,-609,987.26,
00:10:50.02,-40,6,1023,1680,-1750,-560,42,51,-613,987.26,
00:10:50.04,-44,7,1023,1540,-1750,-490,31,54,-613,987.26,
00:10:50.06,-38,6,1025,1610,-1680,-490,36,55,-618,987.26,
00:10:50.08,-38,6,1024,1610,-1680,-490,31,61,-616,987.26,
00:10:50.10,-41,7,1024,1540,-1680,-560,30,54,-616,987.25,
00:10:50.12,-41,6,1025,1540,-1750,-490,25,55,-618,987.25,
00:10:50.14,-44,7,1023,1610,-1750,-560,28,54,-612,987.25,
00:10:50.16,-41,6,1023,1470,-1750,-490,33,54,-609,987.25,
00:10:50.18,-40,6,1023,1610,-1750,-490,28,54,-615,987.25,
00:10:50.20,-43,6,1023,1470,-1750,-560,30,45,-609,987.25,
00:10:50.22,-41,6,1025,1540,-1680,-490,37,48,-618,987.25,
00:10:50.24,-42,7,1023,1540,-1680,-490,28,61,-607,987.25,
00:10:50.26,-40,7,1025,1540,-1680,-490,33,58,-615,987.25,
00:10:50.28,-40,8,1026,1610,-1680,-490,34,49,-619,987.25,
00:10:50.30,-42,6,1025,1540,-1680,-490,28,46,-613,987.25,
00:10:50.32,-43,7,1024,1540,-1750,-560,33,51,-609,987.25,
00:10:50.34,-41,6,1023,1540,-1680,-490,28,57,-616,987.25,
00:10:50.36,-39,8,1023,1540,-1750,-490,27,49,-607,987.25,
00:10:50.38,-37,8,1026,1540,-1680,-490,34,46,-606,987.25,
00:10:50.40,-36,6,1026,1540,-1680,-490,28,57,-609,987.25,
00:10:50.42,-42,7,1024,1610,-1680,-490,22,51,-606,987.25,
00:10:50.44,-42,7,1024,1540,-1680,-560,31,54,-607,987.25,
00:10:50.46,-40,6,1026,1540,-1680,-490,31,57,-619,987.25,
00:10:50.48,-37,8,1025,1610,-1680,-490,31,63,-616,987.25,
00:10:50.50,-38,6,1026,1540,-1680,-560,31,57,-613,987.25,
00:10:50.52,-37,7,1027,1540,-1680,-560,30,48,-606,987.25,
00:10:50.54,-40,7,1024,1540,-1680,-560,30,57,-616,987.25,
00:10:50.56,-38,7,1025,1610,-1680,-560,33,49,-612,987.25,
00:10:50.58,-37,6,1025,1610,-1680,-490,19,49,-615,987.25,
00:10:50.60,-37,6,1025,1540,-1680,-560,25,58,-613,987.25,
00:10:50.62,-37,6,1027,1470,-1680,-560,39,49,-609,987.25,
00:10:50.64,-40,6,1026,1610,-1680,-490,30,54,-610,987.25,
00:10:50.66,-36,6,1026,1470,-1680,-560,28,54,-607,987.25,
00:10:50.68,-36,7,1026,1610,-1680,-560,25,60,-607,987.25,
00:10:50.70,-37,7,1028,1540,-1680,-560,30,54,-607,987.26,
00:10:50.72,-39,6,1027,1540,-1680,-560,42,58,-613,987.26,
00:10:50.74,-40,7,1026,1610,-1680,-560,33,52,-609,987.26,
00:10:50.76,-40,7,1026,1470,-1680,-490,36,46,-607,987.26,
00:10:50.78,-37,7,1027,1540,-1680,-560,31,51,-607,987.26,
00:10:50.80,-38,7,1027,1610,-1680,-490,31,58,-612,987.26,
00:10:50.82,-40,6,1026,1610,-1680,-490,39,49,-610,987.25,
00:10:50.84,-40,6,1026,1540,-1680,-560,28,49,-613,987.25,
00:10:50.86,-42,7,1026,1540,-1680,-490,33,52,-606,987.25,
00:10:50.88,-43,6,1026,1540,-1680,-560,36,54,-613,987.25,
00:10:50.90,-39,7,1027,1540,-1680,-560,34,52,-613,987.25,
00:10:50.92,-40,6,1027,1540,-1750,-490,40,54,-607,987.25,
00:10:50.94,-42,7,1027,1610,-1680,-560,36,52,-610,987.25,
00:10:50.96,-41,6,1027,1610,-1750,-490,28,52,-609,987.26,
00:10:50.98,-41,7,1028,1470,-1750,-490,30,54,-610,987.26,
00:10:51.00,-39,7,1028,1540,-1680,-490,36,52,-607,987.26,
00:10:51.02,-41,7,1026,1540,-1680,-560,37,55,-609,987.26,
00:10:51.04,-42,6,1026,1470,-1680,-560,31,45,-603,987.27,
00:10:51.06,-41,7,1026,1610,-1750,-490,40,51,-607,987.27,
00:10:51.08,-39,7,1027,1540,-1680,-560,30,49,-607,987.26,
00:10:51.10,-38,6,1027,1470,-1680,-490,34,52,-612,987.26,
00:10:51.12,-42,6,1025,1680,-1750,-560,25,66,-610,987.25,
00:10:51.14,-40,7,1026,1610,-1750,-560,25,58,-606,987.25,
00:10:51.16,-40,7,1027,1470,-1680,-490,31,57,-610,987.25,
00:10:51.18,-38,8,1027,1610,-1680,-490,25,55,-606,987.25,
00:10:51.20,-38,7,1027,1540,-1610,-560,36,54,-604,987.25,
00:10:51.22,-37,8,1029,1470,-1680,-560,33,55,-609,987.25,
00:10:51.24,-40,8,1026,1680,-1750,-490,39,58,-613,987.23,
00:10:51.26,-39,8,1026,1540,-1610,-560,37,61,-607,987.23,
00:10:51.28,-36,7,1028,1540,-1680,-490,33,45,-610,987.23,
00:10:51.30,-37,7,1026,1610,-1680,-490,40,58,-609,987.23,
00:10:51.32,-37,7,1027,1470,-1680,-560,36,45,-609,987.23,
00:10:51.34,-39,6,1027,1540,-1680,-560,27,49,-613,987.23,
00:10:51.36,-37,7,1027,1610,-1680,-560,40,54,-612,987.23,
00:10:51.38,-37,7,1028,1470,-1680,-560,27,51,-612,987.23,
00:10:51.40,-38,7,1029,1540,-1680,-560,24,55,-615,987.23,
00:10:51.42,-39,6,1026,1540,-1680,-490,21,51,-609,987.23,
00:10:51.44,-39,6,1026,1540,-1680,-490,25,51,-613,987.23,
00:10:51.46,-42,7,1027,1540,-1750,-560,36,51,-616,987.23,
00:10:51.48,-38,7,1027,1540,-1680,-560,31,51,-610,987.23,
00:10:51.50,-38,6,1026,1540,-1680,-560,22,52,-619,987.23,
00:10:51.52,-40,7,1026,1540,-1680,-490,40,60,-616,987.25,
00:10:51.54,-41,6,1026,1540,-1680,-490,31,49,-604,987.25,
00:10:51.56,-42,7,1026,1540,-1680,-490,37,54,-613,987.25,
00:10:51.58,-41,7,1026,1540,-1680,-490,31,48,-610,987.25,
00:10:51.60,-39,6,1026,1540,-1680,-490,36,54,-615,987.26,
00:10:51.62,-40,6,1026,1540,-1680,-560,37,54,-604,987.26,
00:10:51.64,-43,6,1024,1540,-1680,-560,28,58,-615,987.26,
00:10:51.66,-42,7,1025,1540,-1680,-490,31,61,-610,987.26,
00:10:51.68,-40,7,1026,1540,-1750,-490,33,57,-610,987.26,
00:10:51.70,-38,7,1026,1610,-1680,-560,31,58,-613,987.26,
00:10:51.72,-42,6,1025,1470,-1680,-490,33,52,-609,987.23,
00:10:51.74,-42,6,1026,1540,-1680,-490,33,49,-615,987.23,
00:10:51.76,-41,7,1025,1540,-1680,-490,27,55,-612,987.25,
00:10:51.78,-39,7,1025,1470,-1680,-560,28,57,-610,987.25,
00:10:51.80,-38,7,1027,1540,-1680,-560,33,63,-609,987.23,
00:10:51.82,-37,8,1025,1540,-1680,-560,39,54,-610,987.23,
00:10:51.84,-42,7,1024,1540,-1750,-490,27,52,-618,987.25,
00:10:51.86,-40,6,1025,1540,-1750,-490,24,54,-619,987.25,
00:10:51.88,-38,7,1025,1610,-1750,-490,36,52,-606,987.25,
00:10:51.90,-38,8,1025,1610,-1680,-560,33,51,-613,987.25,
00:10:51.92,-37,7,1024,1470,-1680,-560,27,57,-615,987.25,
00:10:51.94,-38,8,1025,1540,-1680,-490,33,49,-615,987.25,
00:10:51.96,-39,7,1025,1540,-1680,-560,33,54,-610,987.23,
00:10:51.98,-38,7,1025,1610,-1680,-560,24,55,-609,987.23,
00:10:52.00,-36,8,1025,1540,-1680,-560,19,55,-610,987.23,
00:10:52.02,-38,7,1025,1470,-1680,-490,25,63,-615,987.23,
00:10:52.04,-40,6,1024,1610,-1680,-490,31,60,-616,987.25,
00:10:52.06,-38,8,1024,1540,-1750,-560,40,54,-604,987.25,
00:10:52.08,-38,7,1025,1540,-1680,-560,27,49,-610,987.25,
00:10:52.10,-38,7,1025,1540,-1610,-490,28,54,-612,987.25,
00:10:52.12,-38,6,1025,1540,-1680,-490,31,51,-618,987.25,
00:10:52.14,-40,7,1024,1540,-1680,-560,27,58,-610,987.25,
00:10:52.16,-42,6,1024,1610,-1680,-560,27,54,-610,987.25,
00:10:52.18,-36,7,1025,1540,-1680,-560,30,49,-606,987.25,
00:10:52.20,-36,6,1024,1470,-1680,-560,33,42,-606,987.22,
00:10:52.22,-39,7,1024,1610,-1680,-560,34,51,-609,987.22,
00:10:52.24,-41,6,1023,1470,-1680,-560,36,55,-613,987.22,
00:10:52.26,-42,7,1024,1540,-1680,-490,34,54,-610,987.22,
00:10:52.28,-41,7,1023,1610,-1680,-490,33,57,-609,987.23,
00:10:52.30,-38,7,1023,1470,-1680,-560,31,52,-619,987.23,
00:10:52.32,-39,6,1024,1540,-1680,-490,33,55,-613,987.23,
00:10:52.34,-42,7,1022,1610,-1680,-490,27,57,-610,987.23,
00:10:52.36,-41,7,1024,1540,-1680,-490,34,46,-613,987.23,
00:10:52.38,-43,7,1026,1540,-1680,-560,27,51,-615,987.25,
00:10:52.40,-40,7,1024,1610,-1680,-490,22,55,-604,987.25,
00:10:52.42,-40,6,1025,1470,-1680,-560,31,52,-615,987.25,
00:10:52.44,-42,6,1024,1470,-1680,-490,37,46,-616,987.25,
00:10:52.46,-42,7,1023,1540,-1680,-490,31,48,-612,987.25,
00:10:52.48,-42,7,1025,1470,-1680,-490,33,54,-610,987.25,
00:10:52.50,-40,8,1026,1540,-1680,-490,43,54,-615,987.25,
00:10:52.52,-39,7,1025,1540,-1750,-560,30,64,-615,987.25,
00:10:52.54,-43,5,1026,1610,-1680,-490,25,49,-609,987.26,
00:10:52.56,-41,7,1026,1610,-1680,-490,28,60,-615,987.26,
00:10:52.58,-40,7,1026,1470,-1750,-560,27,58,-609,987.25,
00:10:52.60,-38,6,1028,1540,-1680,-490,33,43,-606,987.25,
00:10:52.62,-37,7,1026,1610,-1750,-560,39,52,-615,987.26,
00:10:52.64,-37,7,1027,1540,-1680,-560,31,51,-615,987.26,
00:10:52.66,-40,7,1026,1610,-1680,-490,37,61,-609,987.26,
00:10:52.68,-38,8,1026,1610,-1680,-560,36,49,-609,987.26,
00:10:52.70,-37,7,1026,1470,-1680,-560,30,58,-613,987.27,
00:10:52.72,-37,8,1029,1540,-1680,-560,30,54,-609,987.27,
00:10:52.74,-36,7,1027,1610,-1680,-490,30,54,-612,987.27,
00:10:52.76,-39,6,1028,1540,-1680,-490,31,55,-618,987.27,
00:10:52.78,-38,7,1027,1610,-1680,-560,33,51,-607,987.27,
00:10:52.80,-37,6,1029,1540,-1680,-560,42,48,-603,987.27,
00:10:52.82,-38,6,1028,1540,-1680,-560,22,49,-613,987.26,
00:10:52.84,-39,6,1028,1610,-1680,-560,30,45,-613,987.26,
00:10:52.86,-40,6,1026,1540,-1680,-490,30,55,-615,987.26,
00:10:52.88,-42,6,1027,1470,-1680,-490,33,46,-604,987.26,
00:10:52.90,-37,7,1027,1610,-1680,-560,21,55,-610,987.26,
00:10:52.92,-37,6,1027,1540,-1680,-560,37,52,-607,987.26,
00:10:52.94,-39,7,1027,1540,-1680,-490,25,48,-613,987.25,
00:10:52.96,-41,7,1026,1540,-1680,-490,33,46,-618,987.25,
00:10:52.98,-42,7,1026,1610,-1680,-490,28,55,-615,987.25,
00:10:53.00,-41,7,1027,1470,-1610,-560,39,52,-609,987.25,
00:10:53.02,-39,7,1026,1540,-1680,-560,25,55,-607,987.25,
00:10:53.04,-41,7,1026,1540,-1680,-490,42,63,-613,987.25,
00:10:53.06,-42,7,1026,1540,-1680,-560,31,54,-606,987.25,
00:10:53.08,-41,6,1026,1540,-1680,-490,31,52,-607,987.25,
00:10:53.10,-40,7,1028,1540,-1750,-490,37,52,-607,987.25,
00:10:53.12,-40,7,1027,1540,-1680,-490,37,61,-607,987.25,
00:10:53.14,-42,7,1028,1540,-1680,-490,37,55,-606,987.25,
00:10:53.16,-41,7,1026,1610,-1750,-490,34,54,-610,987.25,
00:10:53.18,-42,6,1026,1470,-1680,-490,25,52,-607,987.23,
00:10:53.20,-40,7,1028,1540,-1680,-560,31,54,-619,987.23,
00:10:53.22,-39,8,1028,1610,-1680,-490,39,61,-609,987.23,
00:10:53.24,-42,7,1028,1540,-1610,-490,39,52,-610,987.23,
00:10:53.26,-42,7,1029,1540,-1750,-560,24,54,-612,987.25,
00:10:53.28,-40,7,1029,1610,-1680,-490,24,55,-615,987.25,
00:10:53.30,-39,7,1027,1540,-1680,-490,37,63,-613,987.25,
00:10:53.32,-38,8,1028,1540,-1680,-560,36,52,-607,987.25,
00:10:53.34,-37,7,1030,1470,-1680,-490,36,55,-618,987.25,
00:10:53.36,-40,8,1027,1610,-1680,-560,40,51,-604,987.25,
00:10:53.38,-40,7,1029,1540,-1680,-490,33,49,-612,987.25,
00:10:53.40,-39,7,1028,1610,-1680,-560,31,61,-616,987.25,
00:10:53.42,-36,7,1028,1610,-1680,-490,28,64,-615,987.25,
00:10:53.44,-38,7,1027,1470,-1680,-560,33,51,-613,987.25,
00:10:53.46,-39,7,1028,1610,-1610,-560,40,63,-609,987.26,
00:10:53.48,-38,8,1027,1540,-1750,-560,36,60,-607,987.26,
00:10:53.50,-37,6,1027,1540,-1680,-490,28,55,-607,987.26,
00:10:53.52,-37,8,1028,1540,-1680,-560,33,51,-619,987.26,
00:10:53.54,-37,6,1028,1540,-1680,-560,21,60,-613,987.26,
00:10:53.56,-39,6,1027,1540,-1680,-490,30,52,-610,987.26,
00:10:53.58,-40,6,1027,1610,-1680,-560,33,55,-610,987.26,
00:10:53.60,-36,8,1027,1540,-1680,-560,33,52,-613,987.26,
00:10:53.62,-37,6,1029,1470,-1680,-560,33,46,-612,987.26,
00:10:53.64,-37,6,1027,1680,-1680,-560,33,57,-612,987.26,
00:10:53.66,-40,7,1026,1680,-1680,-490,25,60,-607,987.26,
00:10:53.68,-41,7,1026,1540,-1680,-490,28,52,-604,987.26,
00:10:53.70,-42,8,1027,1540,-1750,-490,39,49,-613,987.26,
00:10:53.72,-37,7,1027,1540,-1680,-560,31,51,-612,987.26,
00:10:53.74,-39,6,1027,1540,-1680,-560,33,55,-610,987.26,
00:10:53.76,-41,6,1027,1610,-1680,-560,36,55,-603,987.26,
00:10:53.78,-42,7,1027,1540,-1680,-490,39,54,-610,987.26,
00:10:53.80,-43,6,1027,1540,-1680,-490,33,52,-606,987.27,
00:10:53.82,-41,8,1027,1610,-1750,-490,30,54,-610,987.27,
00:10:53.84,-40,6,1026,1540,-1680,-490,33,49,-610,987.27,
00:10:53.86,-41,6,1027,1470,-1680,-490,33,58,-618,987.27,
00:10:53.88,-42,7,1026,1540,-1680,-490,22,58,-610,987.26,
00:10:53.90,-41,7,1028,1610,-1750,-560,28,54,-613,987.26,
00:10:53.92,-40,8,1028,1540,-1680,-560,34,48,-613,987.26,
00:10:53.94,-37,7,1029,1610,-1680,-560,39,49,-610,987.26,
00:10:53.96,-41,7,1029,1540,-1750,-560,34,51,-604,987.27,
00:10:53.98,-41,7,1029,1610,-1750,-490,24,52,-601,987.27,
00:10:54.00,-40,7,1027,1540,-1680,-560,33,55,-606,987.26,
00:10:54.02,-38,7,1029,1610,-1680,-490,24,52,-615,987.26,
00:10:54.04,-37,8,1027,1610,-1680,-560,33,51,-607,987.26,
00:10:54.06,-42,7,1028,1610,-1680,-490,34,55,-609,987.26,
00:10:54.08,-40,7,1027,1610,-1750,-490,39,48,-616,987.26,
00:10:54.10,-38,8,1028,1540,-1680,-560,34,46,-613,987.26,
00:10:54.12,-38,7,1029,1610,-1680,-560,24,43,-607,987.26,
00:10:54.14,-36,7,1027,1610,-1680,-560,36,61,-612,987.26,
00:10:54.16,-37,6,1027,1610,-1610,-560,31,60,-612,987.26,
00:10:54.18,-40,8,1028,1540,-1680,-560,22,54,-612,987.26,
00:10:54.20,-37,9,1028,1610,-1680,-490,30,58,-612,987.26,
00:10:54.22,-37,8,1029,1540,-1680,-560,34,49,-609,987.26,
00:10:54.24,-37,6,1028,1540,-1680,-560,27,54,-612,987.25,
00:10:54.26,-38,6,1029,1610,-1680,-560,30,57,-607,987.25,
00:10:54.28,-40,6,1028,1540,-1750,-560,30,67,-607,987.23,
00:10:54.30,-37,7,1028,1540,-1680,-560,30,49,-612,987.23,
00:10:54.32,-37,7,1029,1540,-1680,-560,36,52,-607,987.23,
00:10:54.34,-38,7,1028,1540,-1680,-560,24,52,-604,987.23,
00:10:54.36,-39,7,1029,1610,-1680,-560,25,57,-612,987.23,
00:10:54.38,-41,7,1027,1610,-1750,-560,22,61,-609,987.23,
00:10:54.40,-42,7,1028,1470,-1680,-490,40,54,-606,987.23,
00:10:54.42,-37,7,1029,1610,-1750,-560,31,45,-613,987.23,
00:10:54.44,-39,6,1028,1540,-1680,-490,25,60,-612,987.25,
00:10:54.46,-40,6,1028,1470,-1680,-560,25,57,-615,987.25,
00:10:54.48,-41,6,1027,1540,-1680,-490,30,57,-612,987.25,
00:10:54.50,-42,7,1027,1540,-1680,-490,39,54,-603,987.25,
00:10:54.52,-41,8,1027,1540,-1680,-490,25,60,-615,987.25,
00:10:54.54,-41,6,1026,1610,-1680,-560,31,54,-609,987.25,
00:10:54.56,-43,7,1028,1470,-1680,-490,39,51,-610,987.25,
00:10:54.58,-42,7,1027,1540,-1680,-490,25,48,-610,987.25,
00:10:54.60,-41,7,1027,1540,-1680,-490,28,54,-610,987.25,
00:10:54.62,-40,7,1028,1540,-1680,-490,34,57,-607,987.25,
00:10:54.64,-38,7,1029,1540,-1680,-560,34,64,-606,987.26,
00:10:54.66,-42,7,1028,1540,-1680,-490,36,54,-610,987.26,
00:10:54.68,-41,6,1028,1540,-1680,-560,31,55,-613,987.26,
00:10:54.70,-40,7,1029,1540,-1680,-490,31,55,-616,987.26,
00:10:54.72,-38,7,1029,1540,-1680,-560,34,54,-612,987.26,
00:10:54.74,-38,7,1028,1470,-1610,-560,30,54,-615,987.26,
00:10:54.76,-37,7,1029,1540,-1680,-490,33,57,-610,987.26,
00:10:54.78,-40,7,1029,1540,-1680,-490,33,60,-616,987.26,
00:10:54.80,-40,7,1029,1540,-1680,-560,30,57,-609,987.26,
00:10:54.82,-36,8,1028,1540,-1680,-490,33,54,-615,987.26,
00:10:54.84,-37,7,1029,1540,-1680,-560,36,52,-615,987.26,
00:10:54.86,-37,7,1029,1540,-1680,-560,34,57,-616,987.26,
00:10:54.88,-39,6,1029,1540,-1680,-490,30,57,-607,987.25,
00:10:54.90,-37,8,1029,1610,-1680,-560,31,57,-604,987.25,
00:10:54.92,-38,7,1030,1540,-1680,-560,31,58,-613,987.27,
00:10:54.94,-38,7,1029,1610,-1680,-560,34,55,-609,987.27,
00:10:54.96,-39,7,1029,1540,-1680,-560,31,52,-615,987.26,
00:10:54.98,-40,6,1028,1540,-1610,-490,33,63,-609,987.26,
